           Num   Time(s)  PosAbs(mm)  Pos(mm)  Pos(%)  Load(kN)
0          1.0     0.005    -50.2616  -0.0047     0.0    0.0712
10        11.0     2.005    -50.1285   0.1284     0.0    0.1376
20        21.0     4.005    -49.9945   0.2624     0.0    0.1873
30        31.0     6.005    -49.8595   0.3974     0.0    0.2519
40        41.0     8.005    -49.7252   0.5317     0.0    0.3264
50        51.0    10.005    -49.5941   0.6628     0.0    0.4069
60        61.0    12.005    -49.4614   0.7955     0.0    0.5029
70        71.0    14.005    -49.3302   0.9266     0.0    0.6056
80        81.0    16.005    -49.1938   1.0631     0.0    0.7225
90        91.0    18.005    -49.0624   1.1945     0.0    0.8417
100      101.0    20.005    -48.9264   1.3305     0.0    0.9678
110      111.0    22.005    -48.7963   1.4606     0.0    1.1057
120      121.0    24.005    -48.6607   1.5962     0.0    1.2522
130      131.0    26.005    -48.5261   1.7307     0.0    1.4086
140      141.0    28.005    -48.3935   1.8634     0.0    1.5638
150      151.0    30.005    -48.2638   1.9931     0.0    1.7294
160      161.0    32.005    -48.1276   2.1292     0.0    1.9076
170      171.0    34.005    -47.9953   2.2616     0.0    2.0858
180      181.0    36.005    -47.8619   2.3949     0.0    2.2742
190      191.0    38.005    -47.7248   2.5321     0.0    2.4648
200      201.0    40.005    -47.5930   2.6639     0.0    2.6493
210      211.0    42.005    -47.4618   2.7951     0.0    2.8289
220      221.0    44.005    -47.3277   2.9292     0.0    2.9438
230      231.0    46.005    -47.1958   3.0610     0.0    2.9737
240      241.0    48.005    -47.0621   3.1948     0.0    3.0207
250      251.0    50.005    -46.9273   3.3296     0.0    3.0516
260      261.0    52.005    -46.7939   3.4630     0.0    3.0569
270      271.0    54.005    -46.6624   3.5945     0.0    3.0561
280      281.0    56.005    -46.5287   3.7282     0.0    3.1196
290      291.0    58.005    -46.3952   3.8617     0.0    3.1734
300      301.0    60.005    -46.2616   3.9953     0.0    3.3122
310      311.0    62.005    -46.1275   4.1294     0.0    3.3990
320      321.0    64.005    -45.9946   4.2623     0.0    3.4643
330      331.0    66.005    -45.8613   4.3955     0.0    3.4488
340      341.0    68.005    -45.7288   4.5281     0.0    3.4788
350      351.0    70.005    -45.5956   4.6613     0.0    3.4799
360      361.0    72.005    -45.4618   4.7951     0.0    3.5088
370      371.0    74.005    -45.3292   4.9276     0.0    3.5255
380      381.0    76.005    -45.1961   5.0607     0.0    3.5375
390      391.0    78.005    -45.0605   5.1964     0.0    3.5463
400      401.0    80.005    -44.9270   5.3298     0.0    3.5596
410      411.0    82.005    -44.7924   5.4645     0.0    3.5484
420      421.0    84.005    -44.6618   5.5951     0.0    3.5693
430      431.0    86.005    -44.5294   5.7275     0.0    3.6151
440      441.0    88.005    -44.3957   5.8611     0.0    3.6608
450      451.0    90.005    -44.2602   5.9967     0.0    3.9793
466      461.0    90.465    -44.2832   5.9737     0.0    3.8035
476      471.0    90.865    -44.2811   5.9757     0.0    3.7947
486      481.0    91.265    -44.2797   5.9771     0.0    3.7681
496      491.0    91.665    -44.2804   5.9765     0.0    3.7466
506      501.0    92.065    -44.2811   5.9757     0.0    3.7312
516      511.0    92.465    -44.2803   5.9766     0.0    3.7275
526      521.0    92.865    -44.2819   5.9750     0.0    3.7419
536      531.0    93.265    -44.2803   5.9766     0.0    3.7039
546      541.0    93.665    -44.2812   5.9757     0.0    3.7056
556      551.0    94.065    -44.2804   5.9765     0.0    3.6806
566      561.0    94.465    -44.2834   5.9734     0.0    3.6738
576      571.0    94.865    -44.2818   5.9751     0.0    3.6700
586      581.0    95.265    -44.2792   5.9776     0.0    3.6782
596      591.0    95.665    -44.2821   5.9748     0.0    3.6540
606      601.0    96.065    -44.2796   5.9773     0.0    3.6462
616      611.0    96.465    -44.2817   5.9752     0.0    3.6454
626      621.0    96.865    -44.2812   5.9757     0.0    3.6197
636      631.0    97.265    -44.2801   5.9767     0.0    3.6132
646      641.0    97.665    -44.2824   5.9744     0.0    3.6133
656      651.0    98.065    -44.2795   5.9774     0.0    3.6124
666      661.0    98.465    -44.2808   5.9761     0.0    3.6054
676      671.0    98.865    -44.2815   5.9753     0.0    3.6135
687      681.0    99.265    -44.2809   5.9759     0.0    3.5844
697      691.0    99.665    -44.2815   5.9753     0.0    3.6689
707      701.0   100.065    -44.2805   5.9763     0.0    3.6536
717      711.0   100.465    -44.2798   5.9771     0.0    3.6645
727      721.0   100.865    -44.2819   5.9750     0.0    3.6488
737      731.0   101.265    -44.2826   5.9743     0.0    3.6402
747      741.0   101.665    -44.2812   5.9757     0.0    3.6400
757      751.0   102.065    -44.2822   5.9747     0.0    3.6260
767      761.0   102.465    -44.2813   5.9755     0.0    3.6322
777      771.0   102.865    -44.2825   5.9744     0.0    3.6165
787      781.0   103.265    -44.2815   5.9754     0.0    3.6390
797      791.0   103.665    -44.2829   5.9740     0.0    3.5021
807      801.0   104.065    -44.2812   5.9757     0.0    3.4714
817      811.0   104.465    -44.2802   5.9766     0.0    3.4696
827      821.0   104.865    -44.2808   5.9761     0.0    3.4394
837      831.0   105.265    -44.2805   5.9763     0.0    3.4527
847      841.0   105.665    -44.2831   5.9738     0.0    3.4448
857      851.0   106.065    -44.2837   5.9732     0.0    3.4394
867      861.0   106.465    -44.2816   5.9753     0.0    3.4665
877      871.0   106.865    -44.2819   5.9750     0.0    3.4473
887      881.0   107.265    -44.2817   5.9751     0.0    3.4590
897      891.0   107.665    -44.2807   5.9761     0.0    3.4484
907      901.0   108.065    -44.2825   5.9744     0.0    3.4478
917      911.0   108.465    -44.2822   5.9746     0.0    3.4553
927      921.0   108.865    -44.2824   5.9745     0.0    3.4365
937      931.0   109.265    -44.2811   5.9758     0.0    3.4305
947      941.0   109.665    -44.2805   5.9764     0.0    3.4387
957      951.0   110.065    -44.2800   5.9768     0.0    3.4348
967      961.0   110.465    -44.2804   5.9765     0.0    3.4636
977      971.0   110.865    -44.2820   5.9748     0.0    3.4357
987      981.0   111.265    -44.2820   5.9748     0.0    3.4583
997      991.0   111.665    -44.2803   5.9765     0.0    3.4552
1007    1001.0   112.065    -44.2790   5.9779     0.0    3.4589
1017    1011.0   112.465    -44.2829   5.9739     0.0    3.4356
1027    1021.0   112.865    -44.2796   5.9772     0.0    3.4431
1037    1031.0   113.265    -44.2810   5.9759     0.0    3.4304
1047    1041.0   113.665    -44.2818   5.9751     0.0    3.4413
1057    1051.0   114.065    -44.2788   5.9781     0.0    3.4584
1067    1061.0   114.465    -44.2822   5.9747     0.0    3.5255
1077    1071.0   114.865    -44.2821   5.9748     0.0    3.5089
1087    1081.0   115.265    -44.2804   5.9765     0.0    3.4862
1097    1091.0   115.665    -44.2819   5.9750     0.0    3.4802
1107    1101.0   116.065    -44.2806   5.9763     0.0    3.4656
1117    1111.0   116.465    -44.2834   5.9734     0.0    3.4735
1127    1121.0   116.865    -44.2798   5.9771     0.0    3.4469
1137    1131.0   117.265    -44.2823   5.9746     0.0    3.3950
1147    1141.0   117.665    -44.2846   5.9722     0.0    3.3948
1157    1151.0   118.065    -44.2823   5.9745     0.0    3.3878
1167    1161.0   118.465    -44.2793   5.9775     0.0    3.4188
1177    1171.0   118.865    -44.2807   5.9762     0.0    3.4142
1187    1181.0   119.265    -44.2804   5.9764     0.0    3.3962
1197    1191.0   119.665    -44.2787   5.9782     0.0    3.3704
1207    1201.0   120.065    -44.2812   5.9757     0.0    3.3721
1217    1211.0   120.465    -44.2821   5.9748     0.0    3.3903
1227    1221.0   120.865    -44.2798   5.9771     0.0    3.3849
1237    1231.0   121.265    -44.2828   5.9741     0.0    3.3657
1247    1241.0   121.665    -44.2822   5.9747     0.0    3.3707
1257    1251.0   122.065    -44.2825   5.9744     0.0    3.3558
1267    1261.0   122.465    -44.2796   5.9773     0.0    3.3635
1277    1271.0   122.865    -44.2835   5.9734     0.0    3.3612
1287    1281.0   123.265    -44.2829   5.9740     0.0    3.3652
1297    1291.0   123.665    -44.2803   5.9766     0.0    3.3605
1307    1301.0   124.065    -44.2805   5.9764     0.0    3.3451
1317    1311.0   124.465    -44.2832   5.9737     0.0    3.3458
1327    1321.0   124.865    -44.2800   5.9769     0.0    3.3523
1337    1331.0   125.265    -44.2810   5.9759     0.0    3.3573
1347    1341.0   125.665    -44.2817   5.9752     0.0    3.3534
1357    1351.0   126.065    -44.2813   5.9755     0.0    3.3657
1367    1361.0   126.465    -44.2797   5.9772     0.0    3.3940
1377    1371.0   126.865    -44.2805   5.9764     0.0    3.3666
1387    1381.0   127.265    -44.2813   5.9755     0.0    3.3571
1397    1391.0   127.665    -44.2823   5.9746     0.0    3.3465
1407    1401.0   128.065    -44.2801   5.9767     0.0    3.3601
1417    1411.0   128.465    -44.2829   5.9739     0.0    3.3352
1427    1421.0   128.865    -44.2811   5.9757     0.0    3.3695
1437    1431.0   129.265    -44.2793   5.9776     0.0    3.3318
1447    1441.0   129.665    -44.2828   5.9741     0.0    3.3368
1457    1451.0   130.065    -44.2829   5.9740     0.0    3.3380
1467    1461.0   130.465    -44.2796   5.9773     0.0    3.3564
1477    1471.0   130.865    -44.2815   5.9754     0.0    3.3230
1487    1481.0   131.265    -44.2813   5.9756     0.0    3.3522
1497    1491.0   131.665    -44.2807   5.9762     0.0    3.3570
1507    1501.0   132.065    -44.2815   5.9754     0.0    3.3342
1517    1511.0   132.465    -44.2810   5.9758     0.0    3.3490
1527    1521.0   132.865    -44.2827   5.9741     0.0    3.3530
1537    1531.0   133.265    -44.2812   5.9757     0.0    3.3398
1547    1541.0   133.665    -44.2796   5.9772     0.0    3.3415
1557    1551.0   134.065    -44.2817   5.9752     0.0    3.3356
1567    1561.0   134.465    -44.2823   5.9746     0.0    3.3478
1577    1571.0   134.865    -44.2822   5.9747     0.0    3.3416
1587    1581.0   135.265    -44.2809   5.9759     0.0    3.3452
1597    1591.0   135.665    -44.2801   5.9767     0.0    3.3310
1607    1601.0   136.065    -44.2799   5.9770     0.0    3.3300
1617    1611.0   136.465    -44.2819   5.9749     0.0    3.3194
1627    1621.0   136.865    -44.2820   5.9749     0.0    3.3174
1637    1631.0   137.265    -44.2844   5.9724     0.0    3.3482
1647    1641.0   137.665    -44.2786   5.9783     0.0    3.3305
1657    1651.0   138.065    -44.2797   5.9772     0.0    3.3238
1667    1661.0   138.465    -44.2810   5.9759     0.0    3.3348
1677    1671.0   138.865    -44.2814   5.9754     0.0    3.3327
1687    1681.0   139.265    -44.2798   5.9771     0.0    3.3352
1697    1691.0   139.665    -44.2823   5.9746     0.0    3.3122
1707    1701.0   140.065    -44.2825   5.9744     0.0    3.3184
1717    1711.0   140.465    -44.2819   5.9750     0.0    3.3190
1727    1721.0   140.865    -44.2828   5.9741     0.0    3.3227
1737    1731.0   141.265    -44.2803   5.9766     0.0    3.3183
1747    1741.0   141.665    -44.2819   5.9749     0.0    3.3226
1757    1751.0   142.065    -44.2832   5.9736     0.0    3.2992
1767    1761.0   142.465    -44.2829   5.9740     0.0    3.3011
1777    1771.0   142.865    -44.2803   5.9765     0.0    3.2949
1787    1781.0   143.265    -44.2831   5.9738     0.0    3.3097
1797    1791.0   143.665    -44.2808   5.9760     0.0    3.3038
1807    1801.0   144.065    -44.2802   5.9767     0.0    3.2980
1817    1811.0   144.465    -44.2808   5.9761     0.0    3.3130
1827    1821.0   144.865    -44.2806   5.9762     0.0    3.3056
1837    1831.0   145.265    -44.2788   5.9781     0.0    3.3024
1847    1841.0   145.665    -44.2797   5.9772     0.0    3.3082
1857    1851.0   146.065    -44.2824   5.9744     0.0    3.3212
1867    1861.0   146.465    -44.2807   5.9761     0.0    3.3253
1877    1871.0   146.865    -44.2828   5.9740     0.0    3.3217
1887    1881.0   147.265    -44.2840   5.9729     0.0    3.3290
1897    1891.0   147.665    -44.2820   5.9749     0.0    3.3214
1907    1901.0   148.065    -44.2812   5.9757     0.0    3.3310
1917    1911.0   148.465    -44.2801   5.9767     0.0    3.3296
1927    1921.0   148.865    -44.2816   5.9753     0.0    3.3037
1937    1931.0   149.265    -44.2800   5.9769     0.0    3.3000
1947    1941.0   149.665    -44.2794   5.9774     0.0    3.3046
1957    1951.0   150.065    -44.2816   5.9753     0.0    3.3080
1967    1961.0   150.465    -44.2801   5.9768     0.0    3.3074
1977    1971.0   150.865    -44.2803   5.9766     0.0    3.3089
1987    1981.0   151.265    -44.2826   5.9743     0.0    3.2990
1997    1991.0   151.665    -44.2788   5.9780     0.0    3.3172
2007    2001.0   152.065    -44.2807   5.9762     0.0    3.3016
2017    2011.0   152.465    -44.2821   5.9748     0.0    3.3023
2027    2021.0   152.865    -44.2806   5.9762     0.0    3.2849
2037    2031.0   153.265    -44.2788   5.9780     0.0    3.2655
2047    2041.0   153.665    -44.2833   5.9736     0.0    3.2631
2057    2051.0   154.065    -44.2812   5.9756     0.0    3.2912
2067    2061.0   154.465    -44.2804   5.9764     0.0    3.2862
2077    2071.0   154.865    -44.2811   5.9758     0.0    3.2979
2087    2081.0   155.265    -44.2790   5.9778     0.0    3.2967
2097    2091.0   155.665    -44.2824   5.9744     0.0    3.2876
2107    2101.0   156.065    -44.2820   5.9748     0.0    3.2818
2117    2111.0   156.465    -44.2820   5.9749     0.0    3.2905
2127    2121.0   156.865    -44.2815   5.9754     0.0    3.2743
2137    2131.0   157.265    -44.2799   5.9769     0.0    3.2933
2147    2141.0   157.665    -44.2803   5.9765     0.0    3.2856
2157    2151.0   158.065    -44.2831   5.9738     0.0    3.2900
2167    2161.0   158.465    -44.2811   5.9758     0.0    3.2905
2177    2171.0   158.865    -44.2813   5.9756     0.0    3.2733
2187    2181.0   159.265    -44.2806   5.9763     0.0    3.2775
2197    2191.0   159.665    -44.2821   5.9747     0.0    3.2625
2207    2201.0   160.065    -44.2799   5.9770     0.0    3.2622
2217    2211.0   160.465    -44.2816   5.9752     0.0    3.2631
2227    2221.0   160.865    -44.2797   5.9772     0.0    3.2581
2237    2231.0   161.265    -44.2822   5.9747     0.0    3.2427
2247    2241.0   161.665    -44.2812   5.9757     0.0    3.2401
2257    2251.0   162.065    -44.2817   5.9752     0.0    3.2231
2267    2261.0   162.465    -44.2803   5.9766     0.0    3.2410
2277    2271.0   162.865    -44.2811   5.9758     0.0    3.2397
2287    2281.0   163.265    -44.2796   5.9773     0.0    3.2333
2297    2291.0   163.665    -44.2803   5.9765     0.0    3.2282
2307    2301.0   164.065    -44.2814   5.9754     0.0    3.2285
2317    2311.0   164.465    -44.2843   5.9726     0.0    3.2323
2327    2321.0   164.865    -44.2837   5.9731     0.0    3.2601
2337    2331.0   165.265    -44.2824   5.9744     0.0    3.2419
2347    2341.0   165.665    -44.2825   5.9744     0.0    3.2462
2357    2351.0   166.065    -44.2784   5.9784     0.0    3.2557
2367    2361.0   166.465    -44.2816   5.9752     0.0    3.2476
2377    2371.0   166.865    -44.2798   5.9771     0.0    3.2520
2387    2381.0   167.265    -44.2806   5.9763     0.0    3.2328
2397    2391.0   167.665    -44.2818   5.9751     0.0    3.2318
2407    2401.0   168.065    -44.2816   5.9753     0.0    3.2357
2417    2411.0   168.465    -44.2819   5.9750     0.0    3.2252
2427    2421.0   168.865    -44.2803   5.9765     0.0    3.2464
2437    2431.0   169.265    -44.2814   5.9755     0.0    3.2535
2447    2441.0   169.665    -44.2813   5.9756     0.0    3.2052
2457    2451.0   170.065    -44.2811   5.9757     0.0    3.2333
2467    2461.0   170.465    -44.2806   5.9763     0.0    3.2403
2477    2471.0   170.865    -44.2802   5.9767     0.0    3.2407
2487    2481.0   171.265    -44.2826   5.9743     0.0    3.2289
2497    2491.0   171.665    -44.2796   5.9772     0.0    3.2702
2507    2501.0   172.065    -44.2828   5.9741     0.0    3.2291
2517    2511.0   172.465    -44.2819   5.9749     0.0    3.2480
2527    2521.0   172.865    -44.2848   5.9720     0.0    3.2468
2537    2531.0   173.265    -44.2805   5.9764     0.0    3.2542
2547    2541.0   173.665    -44.2818   5.9751     0.0    3.2508
2557    2551.0   174.065    -44.2802   5.9767     0.0    3.2434
2567    2561.0   174.465    -44.2828   5.9741     0.0    3.2419
2577    2571.0   174.865    -44.2797   5.9772     0.0    3.2394
2587    2581.0   175.265    -44.2811   5.9758     0.0    3.2513
2597    2591.0   175.665    -44.2804   5.9765     0.0    3.2185
2607    2601.0   176.065    -44.2807   5.9761     0.0    3.2300
2617    2611.0   176.465    -44.2807   5.9762     0.0    3.2355
2627    2621.0   176.865    -44.2816   5.9752     0.0    3.2231
2637    2631.0   177.265    -44.2802   5.9766     0.0    3.2557
2647    2641.0   177.665    -44.2808   5.9760     0.0    3.2267
2657    2651.0   178.065    -44.2814   5.9755     0.0    3.2360
2667    2661.0   178.465    -44.2806   5.9762     0.0    3.2340
2677    2671.0   178.865    -44.2841   5.9727     0.0    3.2336
2687    2681.0   179.265    -44.2788   5.9780     0.0    3.2378
2697    2691.0   179.665    -44.2839   5.9730     0.0    3.2273
2707    2701.0   180.065    -44.2806   5.9763     0.0    3.2479
2717    2711.0   180.465    -44.2807   5.9761     0.0    3.2408
2727    2721.0   180.865    -44.2830   5.9738     0.0    3.2174
2737    2731.0   181.265    -44.2845   5.9724     0.0    3.2099
2747    2741.0   181.665    -44.2802   5.9767     0.0    3.2329
2757    2751.0   182.065    -44.2829   5.9740     0.0    3.2190
2767    2761.0   182.465    -44.2797   5.9772     0.0    3.2407
2777    2771.0   182.865    -44.2824   5.9745     0.0    3.2233
2787    2781.0   183.265    -44.2825   5.9744     0.0    3.2169
2797    2791.0   183.665    -44.2813   5.9756     0.0    3.2207
2807    2801.0   184.065    -44.2797   5.9771     0.0    3.2024
2817    2811.0   184.465    -44.2811   5.9758     0.0    3.2102
2827    2821.0   184.865    -44.2805   5.9764     0.0    3.2222
2837    2831.0   185.265    -44.2835   5.9734     0.0    3.2140
2847    2841.0   185.665    -44.2812   5.9757     0.0    3.2139
2857    2851.0   186.065    -44.2827   5.9741     0.0    3.2320
2867    2861.0   186.465    -44.2805   5.9763     0.0    3.2215
2877    2871.0   186.865    -44.2813   5.9756     0.0    3.2212
2887    2881.0   187.265    -44.2801   5.9767     0.0    3.2197
2897    2891.0   187.665    -44.2812   5.9756     0.0    3.1931
2907    2901.0   188.065    -44.2811   5.9757     0.0    3.2134
2917    2911.0   188.465    -44.2813   5.9756     0.0    3.2100
2927    2921.0   188.865    -44.2809   5.9759     0.0    3.2219
2937    2931.0   189.265    -44.2813   5.9755     0.0    3.2041
2947    2941.0   189.665    -44.2820   5.9748     0.0    3.2146
2957    2951.0   190.065    -44.2804   5.9765     0.0    3.2169
2967    2961.0   190.465    -44.2803   5.9765     0.0    3.2205
2977    2971.0   190.865    -44.2787   5.9782     0.0    3.2138
2987    2981.0   191.265    -44.2796   5.9773     0.0    3.2145
2997    2991.0   191.665    -44.2798   5.9771     0.0    3.2139
3007    3001.0   192.065    -44.2814   5.9754     0.0    3.2267
3017    3011.0   192.465    -44.2806   5.9763     0.0    3.2194
3027    3021.0   192.865    -44.2832   5.9737     0.0    3.2125
3037    3031.0   193.265    -44.2790   5.9778     0.0    3.2471
3047    3041.0   193.665    -44.2813   5.9756     0.0    3.2119
3057    3051.0   194.065    -44.2793   5.9775     0.0    3.2302
3067    3061.0   194.465    -44.2801   5.9768     0.0    3.2116
3077    3071.0   194.865    -44.2817   5.9752     0.0    3.2355
3087    3081.0   195.265    -44.2795   5.9774     0.0    3.2128
3097    3091.0   195.665    -44.2824   5.9744     0.0    3.2092
3107    3101.0   196.065    -44.2825   5.9744     0.0    3.2112
3117    3111.0   196.465    -44.2805   5.9763     0.0    3.2134
3127    3121.0   196.865    -44.2828   5.9741     0.0    3.2166
3137    3131.0   197.265    -44.2817   5.9751     0.0    3.2090
3147    3141.0   197.665    -44.2807   5.9762     0.0    3.2092
3157    3151.0   198.065    -44.2809   5.9760     0.0    3.2105
3167    3161.0   198.465    -44.2820   5.9748     0.0    3.2256
3177    3171.0   198.865    -44.2832   5.9737     0.0    3.2226
3187    3181.0   199.265    -44.2805   5.9763     0.0    3.2740
3197    3191.0   199.665    -44.2824   5.9744     0.0    3.2889
3207    3201.0   200.065    -44.2806   5.9763     0.0    3.2918
3217    3211.0   200.465    -44.2816   5.9752     0.0    3.2758
3227    3221.0   200.865    -44.2809   5.9759     0.0    3.2717
3237    3231.0   201.265    -44.2799   5.9770     0.0    3.2787
3247    3241.0   201.665    -44.2827   5.9742     0.0    3.2622
3257    3251.0   202.065    -44.2856   5.9712     0.0    3.2605
3267    3261.0   202.465    -44.2807   5.9762     0.0    3.2727
3277    3271.0   202.865    -44.2844   5.9725     0.0    3.2654
3287    3281.0   203.265    -44.2792   5.9776     0.0    3.2635
3297    3291.0   203.665    -44.2822   5.9747     0.0    3.2676
3307    3301.0   204.065    -44.2819   5.9750     0.0    3.2579
3317    3311.0   204.465    -44.2789   5.9779     0.0    3.2771
3327    3321.0   204.865    -44.2815   5.9753     0.0    3.2559
3337    3331.0   205.265    -44.2824   5.9744     0.0    3.2642
3347    3341.0   205.665    -44.2819   5.9749     0.0    3.2559
3357    3351.0   206.065    -44.2835   5.9734     0.0    3.2322
3367    3361.0   206.465    -44.2813   5.9756     0.0    3.2441
3377    3371.0   206.865    -44.2810   5.9759     0.0    3.2551
3387    3381.0   207.265    -44.2805   5.9763     0.0    3.2781
3397    3391.0   207.665    -44.2793   5.9775     0.0    3.2764
3407    3401.0   208.065    -44.2807   5.9761     0.0    3.2391
3417    3411.0   208.465    -44.2798   5.9771     0.0    3.2564
3427    3421.0   208.865    -44.2809   5.9760     0.0    3.2391
3437    3431.0   209.265    -44.2823   5.9746     0.0    3.2462
3447    3441.0   209.665    -44.2810   5.9758     0.0    3.2402
3457    3451.0   210.065    -44.2799   5.9769     0.0    3.2293
3467    3461.0   210.465    -44.2793   5.9776     0.0    3.2338
3477    3471.0   210.865    -44.2823   5.9746     0.0    3.2206
3487    3481.0   211.265    -44.2777   5.9792     0.0    3.2341
3497    3491.0   211.665    -44.2808   5.9761     0.0    3.2133
3507    3501.0   212.065    -44.2809   5.9759     0.0    3.1815
3517    3511.0   212.465    -44.2792   5.9777     0.0    3.2124
3527    3521.0   212.865    -44.2807   5.9762     0.0    3.2536
3537    3531.0   213.265    -44.2806   5.9763     0.0    3.2483
3547    3541.0   213.665    -44.2828   5.9741     0.0    3.2896
3557    3551.0   214.065    -44.2791   5.9778     0.0    3.2838
3567    3561.0   214.465    -44.2808   5.9761     0.0    3.2406
3577    3571.0   214.865    -44.2791   5.9777     0.0    3.2510
3587    3581.0   215.265    -44.2814   5.9755     0.0    3.2514
3597    3591.0   215.665    -44.2797   5.9772     0.0    3.2620
3607    3601.0   216.065    -44.2811   5.9758     0.0    3.2623
3617    3611.0   216.465    -44.2806   5.9763     0.0    3.2744
3627    3621.0   216.865    -44.2812   5.9757     0.0    3.2528
3637    3631.0   217.265    -44.2814   5.9754     0.0    3.2487
3654    3641.0   217.740    -44.2620   5.9949     0.0    3.3723
3664    3651.0   218.140    -44.2362   6.0206     0.0    3.4898
3674    3661.0   218.540    -44.2083   6.0486     0.0    3.5898
3684    3671.0   218.940    -44.1789   6.0779     0.0    3.7096
3694    3681.0   219.340    -44.1555   6.1014     0.0    3.8167
3704    3691.0   219.740    -44.1283   6.1285     0.0    3.9149
3714    3701.0   220.140    -44.1010   6.1559     0.0    3.9977
3724    3711.0   220.540    -44.0755   6.1814     0.0    4.0942
3734    3721.0   220.940    -44.0489   6.2080     0.0    4.1769
3744    3731.0   221.340    -44.0219   6.2350     0.0    4.2351
3754    3741.0   221.740    -43.9961   6.2607     0.0    4.3153
3764    3751.0   222.140    -43.9696   6.2872     0.0    4.3699
3774    3761.0   222.540    -43.9423   6.3145     0.0    4.4247
3784    3771.0   222.940    -43.9158   6.3410     0.0    4.4620
3794    3781.0   223.340    -43.8881   6.3688     0.0    4.5134
3804    3791.0   223.740    -43.8620   6.3949     0.0    4.5558
3815    3801.0   224.140    -43.8398   6.4170     0.0    4.5729
3825    3811.0   224.540    -43.8276   6.4292     0.0    4.5795
3835    3821.0   224.940    -43.8131   6.4438     0.0    4.5721
3845    3831.0   225.340    -43.7988   6.4581     0.0    4.5921
3855    3841.0   225.740    -43.7857   6.4712     0.0    4.5885
3865    3851.0   226.140    -43.7734   6.4835     0.0    4.6229
3875    3861.0   226.540    -43.7583   6.4985     0.0    4.6036
3885    3871.0   226.940    -43.7463   6.5106     0.0    4.6385
3895    3881.0   227.340    -43.7316   6.5253     0.0    4.6536
3905    3891.0   227.740    -43.7199   6.5369     0.0    4.6690
3915    3901.0   228.140    -43.7066   6.5503     0.0    4.6785
3925    3911.0   228.540    -43.6925   6.5643     0.0    4.6961
3935    3921.0   228.940    -43.6784   6.5785     0.0    4.6983
3945    3931.0   229.340    -43.6665   6.5904     0.0    4.7148
3955    3941.0   229.740    -43.6518   6.6050     0.0    4.7237
3965    3951.0   230.140    -43.6378   6.6190     0.0    4.7269
3975    3961.0   230.540    -43.6270   6.6299     0.0    4.7384
3985    3971.0   230.940    -43.6121   6.6448     0.0    4.7351
3995    3981.0   231.340    -43.5980   6.6589     0.0    4.7494
4005    3991.0   231.740    -43.5850   6.6719     0.0    4.7230
4015    4001.0   232.140    -43.5714   6.6854     0.0    4.7232
4025    4011.0   232.540    -43.5593   6.6976     0.0    4.7346
4035    4021.0   232.940    -43.5460   6.7109     0.0    4.7290
4045    4031.0   233.340    -43.5334   6.7235     0.0    4.7575
4055    4041.0   233.740    -43.5230   6.7339     0.0    4.7467
4065    4051.0   234.140    -43.5065   6.7504     0.0    4.7705
4075    4061.0   234.540    -43.4938   6.7631     0.0    4.7896
4085    4071.0   234.940    -43.4806   6.7763     0.0    4.8041
4095    4081.0   235.340    -43.4669   6.7900     0.0    4.8358
4105    4091.0   235.740    -43.4514   6.8055     0.0    4.8798
4115    4101.0   236.140    -43.4387   6.8181     0.0    4.8693
4125    4111.0   236.540    -43.4262   6.8307     0.0    4.8921
4135    4121.0   236.940    -43.4142   6.8427     0.0    4.9215
4145    4131.0   237.340    -43.4001   6.8568     0.0    4.9379
4155    4141.0   237.740    -43.3871   6.8698     0.0    4.9646
4165    4151.0   238.140    -43.3742   6.8827     0.0    5.0085
4175    4161.0   238.540    -43.3611   6.8958     0.0    5.0241
4185    4171.0   238.940    -43.3473   6.9096     0.0    5.0707
4195    4181.0   239.340    -43.3319   6.9249     0.0    5.0799
4205    4191.0   239.740    -43.3192   6.9376     0.0    5.1023
4215    4201.0   240.140    -43.3068   6.9500     0.0    5.1258
4225    4211.0   240.540    -43.2923   6.9646     0.0    5.1395
4235    4221.0   240.940    -43.2796   6.9773     0.0    5.1864
4245    4231.0   241.340    -43.2654   6.9914     0.0    5.1949
4255    4241.0   241.740    -43.2554   7.0014     0.0    5.2057
4265    4251.0   242.140    -43.2373   7.0196     0.0    5.2541
4275    4261.0   242.540    -43.2273   7.0296     0.0    5.2623
4285    4271.0   242.940    -43.2127   7.0441     0.0    5.2716
4295    4281.0   243.340    -43.1983   7.0586     0.0    5.3342
4305    4291.0   243.740    -43.1872   7.0697     0.0    5.3349
4315    4301.0   244.140    -43.1744   7.0825     0.0    5.3448
4325    4311.0   244.540    -43.1597   7.0971     0.0    5.3896
4335    4321.0   244.940    -43.1448   7.1121     0.0    5.3269
4345    4331.0   245.340    -43.1348   7.1220     0.0    5.3577
4355    4341.0   245.740    -43.1201   7.1368     0.0    5.4289
4365    4351.0   246.140    -43.1063   7.1505     0.0    5.4634
4375    4361.0   246.540    -43.0945   7.1623     0.0    5.4562
4385    4371.0   246.940    -43.0792   7.1777     0.0    5.4602
4395    4381.0   247.340    -43.0682   7.1887     0.0    5.4704
4405    4391.0   247.740    -43.0538   7.2031     0.0    5.5190
4415    4401.0   248.140    -43.0391   7.2177     0.0    5.5277
4425    4411.0   248.540    -43.0250   7.2318     0.0    5.5678
4435    4421.0   248.940    -43.0130   7.2439     0.0    5.5898
4445    4431.0   249.340    -42.9997   7.2572     0.0    5.6074
4455    4441.0   249.740    -42.9866   7.2703     0.0    5.6356
4465    4451.0   250.140    -42.9747   7.2821     0.0    5.6516
4475    4461.0   250.540    -42.9612   7.2956     0.0    5.6780
4485    4471.0   250.940    -42.9467   7.3101     0.0    5.6864
4495    4481.0   251.340    -42.9315   7.3254     0.0    5.7243
4505    4491.0   251.740    -42.9195   7.3374     0.0    5.7434
4515    4501.0   252.140    -42.9062   7.3506     0.0    5.7549
4525    4511.0   252.540    -42.8928   7.3641     0.0    5.7846
4535    4521.0   252.940    -42.8791   7.3777     0.0    5.8058
4545    4531.0   253.340    -42.8655   7.3913     0.0    5.8217
4555    4541.0   253.740    -42.8550   7.4019     0.0    5.8488
4565    4551.0   254.140    -42.8414   7.4155     0.0    5.8648
4575    4561.0   254.540    -42.8273   7.4295     0.0    5.8905
4585    4571.0   254.940    -42.8128   7.4441     0.0    5.9107
4595    4581.0   255.340    -42.8002   7.4566     0.0    5.9237
4605    4591.0   255.740    -42.7856   7.4712     0.0    5.9379
4615    4601.0   256.140    -42.7725   7.4843     0.0    5.9614
4625    4611.0   256.540    -42.7596   7.4973     0.0    5.9880
4635    4621.0   256.940    -42.7453   7.5116     0.0    5.9988
4645    4631.0   257.340    -42.7338   7.5231     0.0    6.0287
4655    4641.0   257.740    -42.7197   7.5371     0.0    6.0436
4665    4651.0   258.140    -42.7065   7.5504     0.0    6.0501
4675    4661.0   258.540    -42.6944   7.5625     0.0    6.0897
4685    4671.0   258.940    -42.6788   7.5781     0.0    6.0683
4695    4681.0   259.340    -42.6694   7.5875     0.0    6.0968
4705    4691.0   259.740    -42.6547   7.6022     0.0    6.1309
4715    4701.0   260.140    -42.6412   7.6157     0.0    6.1366
4725    4711.0   260.540    -42.6255   7.6314     0.0    6.1645
4735    4721.0   260.940    -42.6140   7.6428     0.0    6.1950
4745    4731.0   261.340    -42.5999   7.6569     0.0    6.1991
4755    4741.0   261.740    -42.5860   7.6708     0.0    6.2251
4765    4751.0   262.140    -42.5734   7.6835     0.0    6.2530
4775    4761.0   262.540    -42.5607   7.6962     0.0    6.2638
4785    4771.0   262.940    -42.5450   7.7119     0.0    6.2690
4795    4781.0   263.340    -42.5327   7.7242     0.0    6.3077
4805    4791.0   263.740    -42.5190   7.7379     0.0    6.3170
4815    4801.0   264.140    -42.5060   7.7508     0.0    6.3657
4825    4811.0   264.540    -42.4936   7.7633     0.0    6.3791
4835    4821.0   264.940    -42.4823   7.7745     0.0    6.3859
4845    4831.0   265.340    -42.4669   7.7899     0.0    6.4270
4855    4841.0   265.740    -42.4545   7.8024     0.0    6.4293
4865    4851.0   266.140    -42.4389   7.8180     0.0    6.4432
4875    4861.0   266.540    -42.4249   7.8320     0.0    6.4798
4885    4871.0   266.940    -42.4126   7.8443     0.0    6.4834
4895    4881.0   267.340    -42.3997   7.8572     0.0    6.5040
4905    4891.0   267.740    -42.3876   7.8693     0.0    6.5161
4915    4901.0   268.140    -42.3710   7.8859     0.0    6.5325
4925    4911.0   268.540    -42.3596   7.8972     0.0    6.5663
4935    4921.0   268.940    -42.3460   7.9109     0.0    6.5670
4945    4931.0   269.340    -42.3340   7.9229     0.0    6.5810
4955    4941.0   269.740    -42.3206   7.9363     0.0    6.6084
4965    4951.0   270.140    -42.3076   7.9493     0.0    6.6133
4975    4961.0   270.540    -42.2940   7.9629     0.0    6.6116
4985    4971.0   270.940    -42.2795   7.9773     0.0    6.6406
4995    4981.0   271.340    -42.2673   7.9896     0.0    6.6752
5005    4991.0   271.740    -42.2552   8.0017     0.0    6.6734
5015    5001.0   272.140    -42.2396   8.0173     0.0    6.7101
5025    5011.0   272.540    -42.2255   8.0314     0.0    6.7222
5035    5021.0   272.940    -42.2116   8.0452     0.0    6.7508
5045    5031.0   273.340    -42.1999   8.0570     0.0    6.7466
5055    5041.0   273.740    -42.1861   8.0707     0.0    6.7845
5065    5051.0   274.140    -42.1732   8.0837     0.0    6.7906
5075    5061.0   274.540    -42.1605   8.0963     0.0    6.8084
5085    5071.0   274.940    -42.1454   8.1115     0.0    6.8230
5095    5081.0   275.340    -42.1316   8.1252     0.0    6.7985
5105    5091.0   275.740    -42.1197   8.1372     0.0    6.8460
5115    5101.0   276.140    -42.1088   8.1480     0.0    6.8626
5125    5111.0   276.540    -42.0936   8.1633     0.0    6.8988
5135    5121.0   276.940    -42.0783   8.1786     0.0    6.9549
5145    5131.0   277.340    -42.0665   8.1903     0.0    6.9537
5155    5141.0   277.740    -42.0541   8.2028     0.0    6.9938
5165    5151.0   278.140    -42.0385   8.2183     0.0    7.0137
5175    5161.0   278.540    -42.0273   8.2295     0.0    7.0298
5185    5171.0   278.940    -42.0132   8.2437     0.0    7.0730
5195    5181.0   279.340    -41.9973   8.2596     0.0    7.0850
5205    5191.0   279.740    -41.9871   8.2698     0.0    7.0993
5215    5201.0   280.140    -41.9715   8.2853     0.0    7.1357
5225    5211.0   280.540    -41.9592   8.2976     0.0    7.1451
5235    5221.0   280.940    -41.9456   8.3112     0.0    7.1689
5245    5231.0   281.340    -41.9348   8.3220     0.0    7.1640
5255    5241.0   281.740    -41.9217   8.3352     0.0    7.2037
5265    5251.0   282.140    -41.9065   8.3503     0.0    7.2438
5275    5261.0   282.540    -41.8943   8.3625     0.0    7.2610
5285    5271.0   282.940    -41.8778   8.3791     0.0    7.2858
5295    5281.0   283.340    -41.8646   8.3922     0.0    7.3109
5305    5291.0   283.740    -41.8550   8.4018     0.0    7.3176
5315    5301.0   284.140    -41.8391   8.4178     0.0    7.3721
5325    5311.0   284.540    -41.8268   8.4301     0.0    7.3949
5335    5321.0   284.940    -41.8123   8.4446     0.0    7.4147
5345    5331.0   285.340    -41.8003   8.4565     0.0    7.4316
5355    5341.0   285.740    -41.7877   8.4692     0.0    7.4606
5365    5351.0   286.140    -41.7744   8.4825     0.0    7.4810
5375    5361.0   286.540    -41.7604   8.4964     0.0    7.4761
5385    5371.0   286.940    -41.7466   8.5103     0.0    7.4965
5395    5381.0   287.340    -41.7335   8.5234     0.0    7.4992
5405    5391.0   287.740    -41.7168   8.5400     0.0    7.5198
5415    5401.0   288.140    -41.7056   8.5512     0.0    7.5251
5425    5411.0   288.540    -41.6922   8.5647     0.0    7.5583
5435    5421.0   288.940    -41.6791   8.5777     0.0    7.5777
5445    5431.0   289.340    -41.6644   8.5925     0.0    7.6427
5455    5441.0   289.740    -41.6523   8.6046     0.0    7.6836
5465    5451.0   290.140    -41.6407   8.6162     0.0    7.6877
5475    5461.0   290.540    -41.6267   8.6301     0.0    7.7014
5485    5471.0   290.940    -41.6138   8.6430     0.0    7.7342
5495    5481.0   291.340    -41.5977   8.6592     0.0    7.7143
5505    5491.0   291.740    -41.5872   8.6696     0.0    7.7645
5515    5501.0   292.140    -41.5718   8.6851     0.0    7.7718
5525    5511.0   292.540    -41.5611   8.6958     0.0    7.8072
5535    5521.0   292.940    -41.5461   8.7107     0.0    7.8208
5545    5531.0   293.340    -41.5325   8.7243     0.0    7.8697
5555    5541.0   293.740    -41.5210   8.7359     0.0    7.9015
5565    5551.0   294.140    -41.5050   8.7519     0.0    7.8973
5575    5561.0   294.540    -41.4943   8.7626     0.0    7.9463
5585    5571.0   294.940    -41.4811   8.7758     0.0    7.9384
5595    5581.0   295.340    -41.4678   8.7890     0.0    7.9821
5605    5591.0   295.740    -41.4512   8.8057     0.0    7.9819
5621    5601.0   296.140    -41.4737   8.7831     0.0    7.7180
5631    5611.0   296.540    -41.4709   8.7860     0.0    7.6880
5641    5621.0   296.940    -41.4718   8.7851     0.0    7.6558
5651    5631.0   297.340    -41.4729   8.7840     0.0    7.6056
5661    5641.0   297.740    -41.4716   8.7852     0.0    7.6055
5671    5651.0   298.140    -41.4716   8.7852     0.0    7.6000
5681    5661.0   298.540    -41.4687   8.7882     0.0    7.5748
5691    5671.0   298.940    -41.4699   8.7870     0.0    7.5246
5701    5681.0   299.340    -41.4697   8.7872     0.0    7.5164
5711    5691.0   299.740    -41.4707   8.7862     0.0    7.4951
5721    5701.0   300.140    -41.4713   8.7856     0.0    7.4818
5731    5711.0   300.540    -41.4714   8.7854     0.0    7.4510
5741    5721.0   300.940    -41.4698   8.7871     0.0    7.4379
5751    5731.0   301.340    -41.4701   8.7868     0.0    7.4182
5761    5741.0   301.740    -41.4709   8.7860     0.0    7.4213
5771    5751.0   302.140    -41.4734   8.7835     0.0    7.3903
5782    5761.0   302.540    -41.4713   8.7856     0.0    7.3944
5792    5771.0   302.940    -41.4709   8.7859     0.0    7.3688
5802    5781.0   303.340    -41.4716   8.7853     0.0    7.3548
5812    5791.0   303.740    -41.4702   8.7867     0.0    7.3421
5822    5801.0   304.140    -41.4701   8.7868     0.0    7.3174
5832    5811.0   304.540    -41.4691   8.7878     0.0    7.3174
5842    5821.0   304.940    -41.4722   8.7846     0.0    7.3101
5852    5831.0   305.340    -41.4728   8.7840     0.0    7.2846
5862    5841.0   305.740    -41.4726   8.7843     0.0    7.2691
5872    5851.0   306.140    -41.4735   8.7833     0.0    7.2430
5882    5861.0   306.540    -41.4696   8.7873     0.0    7.2441
5892    5871.0   306.940    -41.4698   8.7870     0.0    7.2667
5902    5881.0   307.340    -41.4732   8.7836     0.0    7.2388
5912    5891.0   307.740    -41.4725   8.7844     0.0    7.2330
5922    5901.0   308.140    -41.4716   8.7852     0.0    7.2158
5932    5911.0   308.540    -41.4715   8.7854     0.0    7.1846
5942    5921.0   308.940    -41.4706   8.7863     0.0    7.1945
5952    5931.0   309.340    -41.4715   8.7853     0.0    7.1586
5962    5941.0   309.740    -41.4727   8.7842     0.0    7.1521
5972    5951.0   310.140    -41.4701   8.7868     0.0    7.1533
5982    5961.0   310.540    -41.4725   8.7844     0.0    7.1399
5992    5971.0   310.940    -41.4718   8.7851     0.0    7.1549
6002    5981.0   311.340    -41.4729   8.7840     0.0    7.1300
6012    5991.0   311.740    -41.4710   8.7859     0.0    7.0972
6022    6001.0   312.140    -41.4731   8.7838     0.0    7.1019
6032    6011.0   312.540    -41.4716   8.7853     0.0    7.1124
6042    6021.0   312.940    -41.4711   8.7858     0.0    7.1033
6052    6031.0   313.340    -41.4714   8.7855     0.0    7.0981
6062    6041.0   313.740    -41.4724   8.7845     0.0    7.0918
6072    6051.0   314.140    -41.4735   8.7834     0.0    7.1004
6082    6061.0   314.540    -41.4711   8.7858     0.0    7.0996
6092    6071.0   314.940    -41.4711   8.7858     0.0    7.1038
6102    6081.0   315.340    -41.4703   8.7866     0.0    7.0910
6112    6091.0   315.740    -41.4725   8.7843     0.0    7.0827
6122    6101.0   316.140    -41.4709   8.7859     0.0    7.0744
6132    6111.0   316.540    -41.4752   8.7816     0.0    7.0467
6142    6121.0   316.940    -41.4722   8.7846     0.0    7.0498
6152    6131.0   317.340    -41.4696   8.7873     0.0    7.0531
6162    6141.0   317.740    -41.4724   8.7845     0.0    7.0554
6172    6151.0   318.140    -41.4690   8.7879     0.0    7.0591
6182    6161.0   318.540    -41.4694   8.7874     0.0    7.0304
6192    6171.0   318.940    -41.4735   8.7834     0.0    7.0295
6202    6181.0   319.340    -41.4736   8.7833     0.0    7.0028
6212    6191.0   319.740    -41.4727   8.7841     0.0    7.0152
6222    6201.0   320.140    -41.4717   8.7851     0.0    7.0103
6232    6211.0   320.540    -41.4739   8.7829     0.0    6.9679
6242    6221.0   320.940    -41.4714   8.7855     0.0    6.9874
6252    6231.0   321.340    -41.4708   8.7861     0.0    6.9964
6262    6241.0   321.740    -41.4720   8.7849     0.0    6.9959
6272    6251.0   322.140    -41.4718   8.7851     0.0    6.9434
6282    6261.0   322.540    -41.4701   8.7868     0.0    6.9625
6292    6271.0   322.940    -41.4719   8.7850     0.0    6.9632
6302    6281.0   323.340    -41.4718   8.7851     0.0    6.9385
6312    6291.0   323.740    -41.4687   8.7882     0.0    6.9421
6322    6301.0   324.140    -41.4721   8.7848     0.0    6.9391
6332    6311.0   324.540    -41.4709   8.7860     0.0    6.9130
6342    6321.0   324.940    -41.4695   8.7873     0.0    6.9240
6352    6331.0   325.340    -41.4711   8.7857     0.0    6.9209
6362    6341.0   325.740    -41.4720   8.7848     0.0    6.9217
6372    6351.0   326.140    -41.4697   8.7871     0.0    6.9111
6382    6361.0   326.540    -41.4705   8.7864     0.0    6.8948
6392    6371.0   326.940    -41.4730   8.7839     0.0    6.8869
6402    6381.0   327.340    -41.4693   8.7875     0.0    6.8763
6412    6391.0   327.740    -41.4714   8.7855     0.0    6.9020
6422    6401.0   328.140    -41.4720   8.7848     0.0    6.8578
6432    6411.0   328.540    -41.4740   8.7828     0.0    6.8179
6442    6421.0   328.940    -41.4724   8.7844     0.0    6.8471
6452    6431.0   329.340    -41.4710   8.7858     0.0    6.8508
6462    6441.0   329.740    -41.4727   8.7841     0.0    6.8518
6472    6451.0   330.140    -41.4728   8.7841     0.0    6.8379
6482    6461.0   330.540    -41.4717   8.7852     0.0    6.8444
6492    6471.0   330.940    -41.4720   8.7848     0.0    6.8739
6502    6481.0   331.340    -41.4708   8.7861     0.0    6.8481
6512    6491.0   331.740    -41.4698   8.7871     0.0    6.8311
6522    6501.0   332.140    -41.4688   8.7880     0.0    6.8279
6532    6511.0   332.540    -41.4704   8.7865     0.0    6.8290
6542    6521.0   332.940    -41.4717   8.7851     0.0    6.8505
6552    6531.0   333.340    -41.4735   8.7833     0.0    6.8329
6562    6541.0   333.740    -41.4747   8.7822     0.0    6.8285
6572    6551.0   334.140    -41.4702   8.7866     0.0    6.8349
6582    6561.0   334.540    -41.4743   8.7826     0.0    6.8591
6592    6571.0   334.940    -41.4738   8.7831     0.0    6.8620
6602    6581.0   335.340    -41.4697   8.7872     0.0    6.8831
6612    6591.0   335.740    -41.4740   8.7828     0.0    6.8013
6622    6601.0   336.140    -41.4710   8.7858     0.0    6.8165
6632    6611.0   336.540    -41.4720   8.7848     0.0    6.9146
6642    6621.0   336.940    -41.4709   8.7860     0.0    6.8896
6652    6631.0   337.340    -41.4710   8.7859     0.0    6.8879
6662    6641.0   337.740    -41.4722   8.7847     0.0    6.8687
6672    6651.0   338.140    -41.4714   8.7854     0.0    6.8562
6682    6661.0   338.540    -41.4733   8.7835     0.0    6.8695
6692    6671.0   338.940    -41.4717   8.7852     0.0    6.8609
6702    6681.0   339.340    -41.4713   8.7856     0.0    6.7820
6712    6691.0   339.740    -41.4744   8.7825     0.0    6.7692
6722    6701.0   340.140    -41.4747   8.7821     0.0    6.8181
6732    6711.0   340.540    -41.4682   8.7886     0.0    6.8186
6742    6721.0   340.940    -41.4748   8.7821     0.0    6.8076
6752    6731.0   341.340    -41.4707   8.7861     0.0    6.8029
6762    6741.0   341.740    -41.4718   8.7850     0.0    6.7822
6772    6751.0   342.140    -41.4743   8.7825     0.0    6.7844
6782    6761.0   342.540    -41.4721   8.7847     0.0    6.8392
6792    6771.0   342.940    -41.4704   8.7865     0.0    6.8053
6802    6781.0   343.340    -41.4745   8.7824     0.0    6.8248
6812    6791.0   343.740    -41.4717   8.7851     0.0    6.8515
6822    6801.0   344.140    -41.4726   8.7843     0.0    6.8406
6832    6811.0   344.540    -41.4712   8.7857     0.0    6.8346
6842    6821.0   344.940    -41.4705   8.7864     0.0    6.8158
6852    6831.0   345.340    -41.4713   8.7855     0.0    6.8286
6862    6841.0   345.740    -41.4725   8.7844     0.0    6.7964
6872    6851.0   346.140    -41.4716   8.7853     0.0    6.7983
6882    6861.0   346.540    -41.4733   8.7836     0.0    6.7748
6892    6871.0   346.940    -41.4703   8.7866     0.0    6.7702
6902    6881.0   347.340    -41.4724   8.7845     0.0    6.7791
6912    6891.0   347.740    -41.4711   8.7857     0.0    6.7862
6922    6901.0   348.140    -41.4729   8.7839     0.0    6.7515
6932    6911.0   348.540    -41.4723   8.7846     0.0    6.7716
6942    6921.0   348.940    -41.4727   8.7841     0.0    6.7625
6952    6931.0   349.340    -41.4710   8.7858     0.0    6.7734
6962    6941.0   349.740    -41.4732   8.7836     0.0    6.7453
6972    6951.0   350.140    -41.4695   8.7874     0.0    6.7585
6982    6961.0   350.540    -41.4731   8.7837     0.0    6.7379
6992    6971.0   350.940    -41.4736   8.7833     0.0    6.7332
7002    6981.0   351.340    -41.4715   8.7853     0.0    6.7264
7012    6991.0   351.740    -41.4727   8.7842     0.0    6.7442
7022    7001.0   352.140    -41.4723   8.7846     0.0    6.7297
7032    7011.0   352.540    -41.4736   8.7833     0.0    6.7227
7042    7021.0   352.940    -41.4708   8.7861     0.0    6.7647
7052    7031.0   353.340    -41.4702   8.7867     0.0    6.7672
7062    7041.0   353.740    -41.4718   8.7851     0.0    6.7435
7072    7051.0   354.140    -41.4693   8.7875     0.0    6.7530
7082    7061.0   354.540    -41.4721   8.7847     0.0    6.7439
7092    7071.0   354.940    -41.4724   8.7845     0.0    6.7070
7102    7081.0   355.340    -41.4721   8.7847     0.0    6.7241
7112    7091.0   355.740    -41.4714   8.7855     0.0    6.7535
7122    7101.0   356.140    -41.4715   8.7854     0.0    6.7253
7132    7111.0   356.540    -41.4706   8.7863     0.0    6.6966
7142    7121.0   356.940    -41.4727   8.7841     0.0    6.7155
7152    7131.0   357.340    -41.4714   8.7855     0.0    6.7156
7162    7141.0   357.740    -41.4756   8.7813     0.0    6.7149
7172    7151.0   358.140    -41.4708   8.7860     0.0    6.7198
7182    7161.0   358.540    -41.4704   8.7864     0.0    6.7171
7192    7171.0   358.940    -41.4699   8.7870     0.0    6.7190
7202    7181.0   359.340    -41.4724   8.7845     0.0    6.6885
7212    7191.0   359.740    -41.4696   8.7872     0.0    6.6820
7222    7201.0   360.140    -41.4710   8.7858     0.0    6.6835
7232    7211.0   360.540    -41.4722   8.7847     0.0    6.6760
7242    7221.0   360.940    -41.4709   8.7860     0.0    6.6836
7252    7231.0   361.340    -41.4702   8.7866     0.0    6.6531
7262    7241.0   361.740    -41.4704   8.7865     0.0    6.6887
7272    7251.0   362.140    -41.4715   8.7854     0.0    6.7175
7282    7261.0   362.540    -41.4701   8.7868     0.0    6.6994
7292    7271.0   362.940    -41.4750   8.7818     0.0    6.6841
7302    7281.0   363.340    -41.4729   8.7839     0.0    6.6855
7312    7291.0   363.740    -41.4719   8.7850     0.0    6.6789
7329    7301.0   364.190    -41.4739   8.7830     0.0    6.6814
7339    7311.0   364.590    -41.4468   8.8100     0.0    6.9424
7349    7321.0   364.990    -41.4207   8.8362     0.0    7.1900
7359    7331.0   365.390    -41.3936   8.8633     0.0    7.4136
7369    7341.0   365.790    -41.3673   8.8895     0.0    7.6012
7379    7351.0   366.190    -41.3389   8.9180     0.0    7.7927
7389    7361.0   366.590    -41.3144   8.9424     0.0    7.9853
7399    7371.0   366.990    -41.2889   8.9679     0.0    8.1198
7409    7381.0   367.390    -41.2582   8.9987     0.0    8.1281
7419    7391.0   367.790    -41.2328   9.0241     0.0    8.2214
7429    7401.0   368.190    -41.2077   9.0492     0.0    8.3237
7439    7411.0   368.590    -41.1819   9.0750     0.0    8.4201
7449    7421.0   368.990    -41.1528   9.1040     0.0    8.4976
7459    7431.0   369.390    -41.1272   9.1296     0.0    8.5758
7469    7441.0   369.790    -41.0999   9.1570     0.0    8.6531
7479    7451.0   370.190    -41.0743   9.1826     0.0    8.7491
7489    7461.0   370.590    -41.0488   9.2081     0.0    8.8140
7499    7471.0   370.990    -41.0213   9.2356     0.0    8.8884
7509    7481.0   371.390    -40.9937   9.2632     0.0    8.9725
7519    7491.0   371.790    -40.9686   9.2883     0.0    9.0398
7529    7501.0   372.190    -40.9391   9.3178     0.0    9.0821
7539    7511.0   372.590    -40.9129   9.3440     0.0    9.1914
7549    7521.0   372.990    -40.8863   9.3705     0.0    9.2662
7559    7531.0   373.390    -40.8616   9.3953     0.0    9.3319
7569    7541.0   373.790    -40.8329   9.4240     0.0    9.4673
7579    7551.0   374.190    -40.8088   9.4481     0.0    9.5463
7589    7561.0   374.590    -40.7803   9.4765     0.0    9.6345
7599    7571.0   374.990    -40.7540   9.5029     0.0    9.7026
7609    7581.0   375.390    -40.7268   9.5301     0.0    9.7968
7619    7591.0   375.790    -40.6997   9.5571     0.0    9.8692
7629    7601.0   376.190    -40.6744   9.5825     0.0    9.9396
7639    7611.0   376.590    -40.6455   9.6113     0.0   10.0091
7649    7621.0   376.990    -40.6180   9.6389     0.0   10.0762
7659    7631.0   377.390    -40.5943   9.6625     0.0   10.1401
7669    7641.0   377.790    -40.5685   9.6883     0.0   10.1975
7679    7651.0   378.190    -40.5418   9.7151     0.0   10.2762
7689    7661.0   378.590    -40.5150   9.7419     0.0   10.3563
7699    7671.0   378.990    -40.4889   9.7679     0.0   10.4433
7709    7681.0   379.390    -40.4623   9.7946     0.0   10.4941
7719    7691.0   379.790    -40.4351   9.8217     0.0   10.5981
7729    7701.0   380.190    -40.4048   9.8521     0.0   10.6606
7739    7711.0   380.590    -40.3816   9.8752     0.0   10.7485
7749    7721.0   380.990    -40.3542   9.9026     0.0   10.8284
7759    7731.0   381.390    -40.3236   9.9333     0.0   10.9517
7769    7741.0   381.790    -40.3020   9.9549     0.0   10.9785
7779    7751.0   382.190    -40.2725   9.9844     0.0   11.0686
7789    7761.0   382.590    -40.2475  10.0094     0.0   11.1408
7799    7771.0   382.990    -40.2186  10.0383     0.0   11.2508
7809    7781.0   383.390    -40.1950  10.0619     0.0   11.3242
7819    7791.0   383.790    -40.1668  10.0900     0.0   11.3329
7829    7801.0   384.190    -40.1405  10.1164     0.0   11.4589
7839    7811.0   384.590    -40.1145  10.1423     0.0   11.5398
7849    7821.0   384.990    -40.0864  10.1705     0.0   11.6091
7859    7831.0   385.390    -40.0608  10.1961     0.0   11.6992
7869    7841.0   385.790    -40.0341  10.2228     0.0   11.7913
7879    7851.0   386.190    -40.0076  10.2492     0.0   11.8592
7889    7861.0   386.590    -39.9838  10.2730     0.0   11.9669
7905    7871.0   386.980    -39.9977  10.2592     0.0   11.5570
7915    7881.0   387.380    -39.9968  10.2600     0.0   11.4639
7925    7891.0   387.780    -39.9972  10.2597     0.0   11.3717
7935    7901.0   388.180    -39.9969  10.2599     0.0   11.2812
7945    7911.0   388.580    -39.9987  10.2582     0.0   11.2176
7955    7921.0   388.980    -39.9970  10.2598     0.0   11.1883
7965    7931.0   389.380    -39.9979  10.2590     0.0   11.1463
7975    7941.0   389.780    -39.9969  10.2599     0.0   11.0846
7985    7951.0   390.180    -39.9951  10.2617     0.0   11.0312
7995    7961.0   390.580    -39.9990  10.2579     0.0   10.9892
8005    7971.0   390.980    -39.9970  10.2599     0.0   10.9807
8015    7981.0   391.380    -39.9982  10.2586     0.0   10.8713
8025    7991.0   391.780    -39.9956  10.2612     0.0   10.8558
8035    8001.0   392.180    -39.9967  10.2602     0.0   10.8300
8045    8011.0   392.580    -39.9973  10.2596     0.0   10.8055
8055    8021.0   392.980    -39.9928  10.2640     0.0   10.7827
8065    8031.0   393.380    -39.9959  10.2609     0.0   10.7392
8075    8041.0   393.780    -39.9959  10.2610     0.0   10.7262
8085    8051.0   394.180    -39.9952  10.2617     0.0   10.6940
8095    8061.0   394.580    -39.9961  10.2608     0.0   10.6537
8105    8071.0   394.980    -39.9975  10.2594     0.0   10.6589
8115    8081.0   395.380    -39.9974  10.2595     0.0   10.5978
8125    8091.0   395.780    -39.9956  10.2612     0.0   10.6017
8136    8101.0   396.180    -39.9968  10.2601     0.0   10.5544
8146    8111.0   396.580    -39.9967  10.2602     0.0   10.5216
8156    8121.0   396.980    -39.9987  10.2581     0.0   10.5259
8166    8131.0   397.380    -39.9974  10.2594     0.0   10.5078
8176    8141.0   397.780    -39.9961  10.2608     0.0   10.4889
8186    8151.0   398.180    -40.0002  10.2567     0.0   10.4760
8196    8161.0   398.580    -39.9975  10.2593     0.0   10.5125
8206    8171.0   398.980    -39.9968  10.2601     0.0   10.5434
8216    8181.0   399.380    -39.9973  10.2596     0.0   10.4387
8226    8191.0   399.780    -39.9954  10.2614     0.0   10.4100
8236    8201.0   400.180    -39.9980  10.2588     0.0   10.3758
8246    8211.0   400.580    -39.9955  10.2614     0.0   10.3525
8256    8221.0   400.980    -39.9970  10.2599     0.0   10.3852
8266    8231.0   401.380    -39.9984  10.2584     0.0   10.3199
8276    8241.0   401.780    -39.9973  10.2596     0.0   10.3099
8286    8251.0   402.180    -39.9969  10.2600     0.0   10.3266
8296    8261.0   402.580    -39.9958  10.2611     0.0   10.2965
8306    8271.0   402.980    -39.9967  10.2601     0.0   10.3100
8316    8281.0   403.380    -39.9973  10.2595     0.0   10.2807
8326    8291.0   403.780    -39.9966  10.2603     0.0   10.2666
8336    8301.0   404.180    -39.9965  10.2603     0.0   10.2452
8346    8311.0   404.580    -39.9979  10.2589     0.0   10.2383
8356    8321.0   404.980    -39.9970  10.2599     0.0   10.2146
8366    8331.0   405.380    -39.9941  10.2627     0.0   10.2172
8376    8341.0   405.780    -39.9948  10.2620     0.0   10.1777
8386    8351.0   406.180    -39.9978  10.2591     0.0   10.2097
8396    8361.0   406.580    -39.9967  10.2602     0.0   10.2094
8406    8371.0   406.980    -39.9982  10.2587     0.0   10.1987
8416    8381.0   407.380    -39.9977  10.2592     0.0   10.1829
8426    8391.0   407.780    -39.9995  10.2574     0.0   10.1497
8436    8401.0   408.180    -39.9977  10.2591     0.0   10.1225
8446    8411.0   408.580    -39.9975  10.2594     0.0   10.1303
8456    8421.0   408.980    -39.9978  10.2591     0.0   10.1337
8466    8431.0   409.380    -39.9964  10.2604     0.0   10.1766
8476    8441.0   409.780    -39.9955  10.2613     0.0   10.1246
8486    8451.0   410.180    -39.9953  10.2615     0.0   10.1248
8496    8461.0   410.580    -39.9968  10.2601     0.0   10.0811
8506    8471.0   410.980    -39.9956  10.2612     0.0   10.0932
8516    8481.0   411.380    -39.9965  10.2604     0.0   10.0721
8526    8491.0   411.780    -39.9974  10.2595     0.0   10.0832
8536    8501.0   412.180    -39.9973  10.2595     0.0   10.0840
8546    8511.0   412.580    -39.9974  10.2595     0.0   10.0905
8556    8521.0   412.980    -39.9983  10.2586     0.0   10.1066
8566    8531.0   413.380    -39.9946  10.2623     0.0   10.1095
8576    8541.0   413.780    -39.9982  10.2587     0.0   10.1093
8586    8551.0   414.180    -39.9965  10.2604     0.0   10.0581
8596    8561.0   414.580    -39.9972  10.2597     0.0   10.0149
8606    8571.0   414.980    -39.9968  10.2601     0.0   10.0292
8616    8581.0   415.380    -39.9978  10.2590     0.0   10.0183
8626    8591.0   415.780    -39.9983  10.2586     0.0   10.0426
8636    8601.0   416.180    -39.9937  10.2631     0.0   10.0394
8646    8611.0   416.580    -39.9945  10.2624     0.0    9.9957
8656    8621.0   416.980    -39.9956  10.2613     0.0   10.0008
8666    8631.0   417.380    -39.9940  10.2629     0.0   10.0317
8676    8641.0   417.780    -39.9992  10.2577     0.0    9.9951
8686    8651.0   418.180    -39.9975  10.2594     0.0    9.9920
8696    8661.0   418.580    -39.9975  10.2593     0.0   10.0112
8706    8671.0   418.980    -39.9974  10.2595     0.0   10.0051
8716    8681.0   419.380    -39.9984  10.2585     0.0   10.0002
8726    8691.0   419.780    -39.9957  10.2611     0.0    9.9957
8736    8701.0   420.180    -39.9949  10.2620     0.0    9.9530
8746    8711.0   420.580    -39.9967  10.2601     0.0    9.9434
8756    8721.0   420.980    -39.9958  10.2610     0.0   10.0057
8766    8731.0   421.380    -39.9954  10.2614     0.0    9.9995
8776    8741.0   421.780    -39.9974  10.2595     0.0    9.9619
8786    8751.0   422.180    -39.9976  10.2593     0.0    9.8914
8796    8761.0   422.580    -39.9950  10.2618     0.0    9.9438
8806    8771.0   422.980    -39.9973  10.2596     0.0    9.9144
8816    8781.0   423.380    -39.9955  10.2614     0.0    9.9372
8826    8791.0   423.780    -39.9959  10.2609     0.0    9.8922
8836    8801.0   424.180    -39.9976  10.2593     0.0    9.8774
8846    8811.0   424.580    -39.9955  10.2614     0.0    9.9494
8856    8821.0   424.980    -39.9926  10.2643     0.0    9.9731
8866    8831.0   425.380    -39.9934  10.2635     0.0    9.9041
8876    8841.0   425.780    -39.9970  10.2599     0.0    9.8681
8886    8851.0   426.180    -39.9960  10.2609     0.0    9.8802
8896    8861.0   426.580    -39.9941  10.2627     0.0    9.8747
8906    8871.0   426.980    -39.9957  10.2612     0.0    9.8672
8916    8881.0   427.380    -39.9961  10.2608     0.0    9.8503
8926    8891.0   427.780    -39.9969  10.2600     0.0    9.8480
8936    8901.0   428.180    -39.9998  10.2571     0.0    9.8489
8946    8911.0   428.580    -39.9958  10.2610     0.0    9.8528
8956    8921.0   428.980    -39.9954  10.2614     0.0    9.8796
8966    8931.0   429.380    -39.9981  10.2588     0.0    9.8473
8976    8941.0   429.780    -39.9967  10.2602     0.0    9.8556
8986    8951.0   430.180    -39.9966  10.2603     0.0    9.8381
8996    8961.0   430.580    -39.9954  10.2614     0.0    9.8375
9006    8971.0   430.980    -39.9967  10.2602     0.0    9.8713
9016    8981.0   431.380    -39.9963  10.2605     0.0    9.8363
9026    8991.0   431.780    -39.9980  10.2589     0.0    9.8183
9036    9001.0   432.180    -39.9951  10.2618     0.0    9.8378
9046    9011.0   432.580    -39.9970  10.2599     0.0    9.8598
9056    9021.0   432.980    -39.9968  10.2600     0.0    9.8292
9066    9031.0   433.380    -39.9955  10.2614     0.0    9.8547
9076    9041.0   433.780    -39.9959  10.2609     0.0    9.8031
9086    9051.0   434.180    -39.9960  10.2609     0.0    9.7857
9096    9061.0   434.580    -39.9973  10.2596     0.0    9.7694
9106    9071.0   434.980    -39.9970  10.2599     0.0    9.7723
9116    9081.0   435.380    -39.9950  10.2618     0.0    9.7708
9126    9091.0   435.780    -39.9984  10.2584     0.0    9.7219
9136    9101.0   436.180    -39.9958  10.2611     0.0    9.7818
9146    9111.0   436.580    -39.9977  10.2592     0.0    9.7577
9156    9121.0   436.980    -39.9992  10.2577     0.0    9.7437
9166    9131.0   437.380    -39.9963  10.2606     0.0    9.7506
9176    9141.0   437.780    -39.9954  10.2614     0.0    9.7357
9186    9151.0   438.180    -39.9970  10.2599     0.0    9.6998
9196    9161.0   438.580    -39.9959  10.2610     0.0    9.7084
9206    9171.0   438.980    -39.9954  10.2615     0.0    9.6768
9216    9181.0   439.380    -39.9961  10.2607     0.0    9.7350
9226    9191.0   439.780    -39.9963  10.2606     0.0    9.7818
9236    9201.0   440.180    -39.9972  10.2597     0.0    9.7502
9246    9211.0   440.580    -39.9963  10.2605     0.0    9.6937
9256    9221.0   440.980    -39.9966  10.2603     0.0    9.6991
9266    9231.0   441.380    -39.9961  10.2608     0.0    9.7471
9276    9241.0   441.780    -39.9960  10.2609     0.0    9.7499
9286    9251.0   442.180    -39.9943  10.2626     0.0    9.7805
9296    9261.0   442.580    -39.9961  10.2608     0.0    9.7553
9306    9271.0   442.980    -39.9971  10.2598     0.0    9.7327
9316    9281.0   443.380    -39.9963  10.2606     0.0    9.7412
9326    9291.0   443.780    -39.9993  10.2575     0.0    9.7539
9336    9301.0   444.180    -39.9977  10.2591     0.0    9.7701
9346    9311.0   444.580    -39.9949  10.2619     0.0    9.7380
9356    9321.0   444.980    -39.9994  10.2575     0.0    9.7020
9366    9331.0   445.380    -39.9954  10.2615     0.0    9.7641
9376    9341.0   445.780    -39.9964  10.2605     0.0    9.7387
9386    9351.0   446.180    -39.9976  10.2593     0.0    9.7657
9396    9361.0   446.580    -39.9970  10.2599     0.0    9.7628
9406    9371.0   446.980    -39.9965  10.2604     0.0    9.6765
9416    9381.0   447.380    -39.9947  10.2621     0.0    9.6616
9426    9391.0   447.780    -39.9979  10.2590     0.0    9.7097
9436    9401.0   448.180    -39.9967  10.2601     0.0    9.7572
9446    9411.0   448.580    -39.9977  10.2591     0.0    9.6955
9456    9421.0   448.980    -39.9954  10.2614     0.0    9.7063
9466    9431.0   449.380    -39.9966  10.2602     0.0    9.6965
9476    9441.0   449.780    -39.9975  10.2594     0.0    9.6893
9486    9451.0   450.180    -39.9948  10.2620     0.0    9.6825
9496    9461.0   450.580    -39.9995  10.2574     0.0    9.6623
9506    9471.0   450.980    -39.9962  10.2607     0.0    9.6507
9516    9481.0   451.380    -39.9998  10.2571     0.0    9.6173
9526    9491.0   451.780    -39.9961  10.2608     0.0    9.6232
9536    9501.0   452.180    -39.9964  10.2605     0.0    9.6477
9546    9511.0   452.580    -39.9988  10.2580     0.0    9.6617
9556    9521.0   452.980    -39.9968  10.2600     0.0    9.6180
9566    9531.0   453.380    -39.9974  10.2595     0.0    9.5830
9576    9541.0   453.780    -39.9968  10.2601     0.0    9.5993
9586    9551.0   454.180    -39.9971  10.2598     0.0    9.6071
9596    9561.0   454.580    -39.9957  10.2612     0.0    9.5477
9606    9571.0   454.980    -39.9971  10.2597     0.0    9.5881
9616    9581.0   455.380    -39.9952  10.2617     0.0    9.6157
9626    9591.0   455.780    -39.9973  10.2595     0.0    9.6590
9636    9601.0   456.180    -39.9993  10.2575     0.0    9.6621
9646    9611.0   456.580    -39.9952  10.2617     0.0    9.6577
9656    9621.0   456.980    -39.9974  10.2594     0.0    9.6250
9666    9631.0   457.380    -39.9970  10.2599     0.0    9.6409
9676    9641.0   457.780    -39.9953  10.2616     0.0    9.6068
9686    9651.0   458.180    -39.9963  10.2605     0.0    9.5881
9696    9661.0   458.580    -39.9971  10.2598     0.0    9.5847
9706    9671.0   458.980    -39.9962  10.2606     0.0    9.5104
9716    9681.0   459.380    -39.9992  10.2577     0.0    9.5235
9726    9691.0   459.780    -39.9955  10.2614     0.0    9.4925
9736    9701.0   460.180    -39.9978  10.2591     0.0    9.5133
9746    9711.0   460.580    -39.9966  10.2603     0.0    9.5388
9756    9721.0   460.980    -39.9975  10.2593     0.0    9.5349
9766    9731.0   461.380    -39.9968  10.2600     0.0    9.5260
9776    9741.0   461.780    -39.9970  10.2599     0.0    9.5003
9786    9751.0   462.180    -39.9974  10.2594     0.0    9.5168
9796    9761.0   462.580    -39.9964  10.2605     0.0    9.4968
9806    9771.0   462.980    -39.9965  10.2604     0.0    9.5036
9816    9781.0   463.380    -39.9967  10.2602     0.0    9.5401
9826    9791.0   463.780    -39.9953  10.2615     0.0    9.5160
9836    9801.0   464.180    -39.9965  10.2603     0.0    9.5242
9846    9811.0   464.580    -39.9956  10.2613     0.0    9.4829
9856    9821.0   464.980    -39.9967  10.2601     0.0    9.4803
9866    9831.0   465.380    -39.9960  10.2608     0.0    9.4998
9876    9841.0   465.780    -39.9966  10.2603     0.0    9.5573
9886    9851.0   466.180    -39.9972  10.2597     0.0    9.6126
9896    9861.0   466.580    -39.9980  10.2589     0.0    9.6393
9906    9871.0   466.980    -39.9964  10.2604     0.0    9.6682
9916    9881.0   467.380    -39.9970  10.2598     0.0    9.6502
9926    9891.0   467.780    -39.9979  10.2590     0.0    9.5864
9936    9901.0   468.180    -39.9960  10.2609     0.0    9.5904
9946    9911.0   468.580    -39.9974  10.2595     0.0    9.5700
9956    9921.0   468.980    -39.9960  10.2609     0.0    9.5294
9966    9931.0   469.380    -39.9956  10.2613     0.0    9.5331
9976    9941.0   469.780    -39.9964  10.2605     0.0    9.5730
9986    9951.0   470.180    -39.9951  10.2618     0.0    9.6099
9996    9961.0   470.580    -39.9960  10.2609     0.0    9.5095
10006   9971.0   470.980    -39.9957  10.2611     0.0    9.5127
10016   9981.0   471.380    -39.9962  10.2606     0.0    9.5595
10026   9991.0   471.780    -39.9968  10.2600     0.0    9.5580
10036  10001.0   472.180    -39.9957  10.2611     0.0    9.5289
10046  10011.0   472.580    -39.9956  10.2613     0.0    9.5369
10056  10021.0   472.980    -39.9966  10.2603     0.0    9.5430
10066  10031.0   473.380    -39.9955  10.2614     0.0    9.5455
10076  10041.0   473.780    -39.9961  10.2608     0.0    9.5578
10086  10051.0   474.180    -39.9984  10.2585     0.0    9.5500
10096  10061.0   474.580    -39.9968  10.2601     0.0    9.5134
10106  10071.0   474.980    -39.9969  10.2600     0.0    9.4869
10116  10081.0   475.380    -39.9968  10.2601     0.0    9.4958
10126  10091.0   475.780    -39.9969  10.2600     0.0    9.4781
10136  10101.0   476.180    -39.9972  10.2596     0.0    9.5010
10146  10111.0   476.580    -39.9965  10.2603     0.0    9.4741
10156  10121.0   476.980    -39.9929  10.2640     0.0    9.4692
10166  10131.0   477.380    -40.0001  10.2568     0.0    9.5098
10176  10141.0   477.780    -39.9962  10.2607     0.0    9.5566
10186  10151.0   478.180    -39.9979  10.2589     0.0    9.5672
10196  10161.0   478.580    -39.9965  10.2604     0.0    9.5280
10206  10171.0   478.980    -39.9986  10.2583     0.0    9.5416
10216  10181.0   479.380    -39.9975  10.2593     0.0    9.5068
10226  10191.0   479.780    -39.9975  10.2593     0.0    9.4912
10236  10201.0   480.180    -39.9975  10.2594     0.0    9.4280
10246  10211.0   480.580    -39.9940  10.2629     0.0    9.5463
10256  10221.0   480.980    -39.9964  10.2605     0.0    9.5013
10266  10231.0   481.380    -39.9962  10.2606     0.0    9.5201
10276  10241.0   481.780    -39.9961  10.2607     0.0    9.4052
10286  10251.0   482.180    -39.9962  10.2607     0.0    9.4122
10296  10261.0   482.580    -39.9978  10.2591     0.0    9.4165
10306  10271.0   482.980    -39.9969  10.2599     0.0    9.4202
10316  10281.0   483.380    -39.9974  10.2595     0.0    9.3212
10326  10291.0   483.780    -39.9964  10.2604     0.0    9.3569
10336  10301.0   484.180    -39.9970  10.2599     0.0    9.3832
10346  10311.0   484.580    -39.9953  10.2616     0.0    9.3254
10356  10321.0   484.980    -39.9931  10.2638     0.0    9.3780
10366  10331.0   485.380    -39.9969  10.2599     0.0    9.3617
10376  10341.0   485.780    -39.9964  10.2605     0.0    9.3327
10386  10351.0   486.180    -39.9978  10.2591     0.0    9.3255
10396  10361.0   486.580    -39.9950  10.2618     0.0    9.3142
10406  10371.0   486.980    -39.9975  10.2594     0.0    9.3133
10416  10381.0   487.380    -39.9984  10.2585     0.0    9.2794
10426  10391.0   487.780    -39.9941  10.2628     0.0    9.3988
10436  10401.0   488.180    -39.9980  10.2588     0.0    9.3230
10446  10411.0   488.580    -39.9947  10.2622     0.0    9.3258
10456  10421.0   488.980    -39.9941  10.2628     0.0    9.3398
10466  10431.0   489.380    -39.9986  10.2583     0.0    9.3327
10476  10441.0   489.780    -39.9943  10.2626     0.0    9.3457
10486  10451.0   490.180    -39.9931  10.2638     0.0    9.4197
10496  10461.0   490.580    -39.9954  10.2615     0.0    9.3401
10506  10471.0   490.980    -39.9957  10.2612     0.0    9.3424
10516  10481.0   491.380    -40.0005  10.2564     0.0    9.2965
10526  10491.0   491.780    -39.9961  10.2607     0.0    9.3224
10536  10501.0   492.180    -39.9951  10.2617     0.0    9.3061
10546  10511.0   492.580    -39.9986  10.2583     0.0    9.3087
10556  10521.0   492.980    -39.9966  10.2603     0.0    9.3190
10566  10531.0   493.380    -39.9988  10.2581     0.0    9.2934
10576  10541.0   493.780    -39.9925  10.2644     0.0    9.3126
10586  10551.0   494.180    -39.9967  10.2602     0.0    9.3066
10596  10561.0   494.580    -39.9963  10.2606     0.0    9.2781
10606  10571.0   494.980    -39.9963  10.2606     0.0    9.2955
10616  10581.0   495.380    -39.9958  10.2611     0.0    9.2828
10626  10591.0   495.780    -39.9962  10.2606     0.0    9.2668
10636  10601.0   496.180    -39.9980  10.2589     0.0    9.2852
10646  10611.0   496.580    -39.9955  10.2613     0.0    9.3105
10656  10621.0   496.980    -39.9946  10.2623     0.0    9.3162
10666  10631.0   497.380    -39.9950  10.2618     0.0    9.2756
10676  10641.0   497.780    -39.9986  10.2583     0.0    9.2489
10686  10651.0   498.180    -39.9976  10.2593     0.0    9.2504
10696  10661.0   498.580    -39.9969  10.2599     0.0    9.2436
10706  10671.0   498.980    -39.9967  10.2602     0.0    9.2433
10716  10681.0   499.380    -39.9932  10.2636     0.0    9.2750
10726  10691.0   499.780    -39.9962  10.2606     0.0    9.2673
10736  10701.0   500.180    -39.9962  10.2607     0.0    9.2223
10746  10711.0   500.580    -39.9994  10.2575     0.0    9.2688
10756  10721.0   500.980    -39.9975  10.2593     0.0    9.2119
10766  10731.0   501.380    -39.9942  10.2627     0.0    9.2512
10776  10741.0   501.780    -39.9954  10.2615     0.0    9.2022
10786  10751.0   502.180    -39.9968  10.2601     0.0    9.2222
10796  10761.0   502.580    -39.9965  10.2603     0.0    9.1862
10806  10771.0   502.980    -39.9955  10.2614     0.0    9.2132
10816  10781.0   503.380    -39.9955  10.2614     0.0    9.2058
10826  10791.0   503.780    -39.9965  10.2604     0.0    9.2115
10836  10801.0   504.180    -39.9965  10.2603     0.0    9.2118
10846  10811.0   504.580    -39.9997  10.2571     0.0    9.2268
10856  10821.0   504.980    -39.9986  10.2583     0.0    9.2220
10866  10831.0   505.380    -39.9962  10.2607     0.0    9.2261
10876  10841.0   505.780    -39.9930  10.2638     0.0    9.2601
10886  10851.0   506.180    -39.9967  10.2602     0.0    9.2779
10896  10861.0   506.580    -39.9972  10.2597     0.0    9.2113
10906  10871.0   506.980    -39.9982  10.2587     0.0    9.2281
10916  10881.0   507.380    -39.9955  10.2614     0.0    9.2357
10926  10891.0   507.780    -39.9982  10.2587     0.0    9.2299
10936  10901.0   508.180    -39.9965  10.2604     0.0    9.2675
10946  10911.0   508.580    -39.9939  10.2629     0.0    9.2356
10956  10921.0   508.980    -39.9950  10.2618     0.0    9.2768
10966  10931.0   509.380    -39.9948  10.2621     0.0    9.2591
10976  10941.0   509.780    -39.9979  10.2590     0.0    9.2918
10986  10951.0   510.180    -39.9961  10.2607     0.0    9.3056
10996  10961.0   510.580    -39.9979  10.2590     0.0    9.2725
11006  10971.0   510.980    -39.9977  10.2592     0.0    9.2758
11016  10981.0   511.380    -39.9949  10.2619     0.0    9.2926
11026  10991.0   511.780    -39.9955  10.2614     0.0    9.2817
11036  11001.0   512.180    -39.9985  10.2584     0.0    9.2378
11046  11011.0   512.580    -39.9970  10.2599     0.0    9.2851
11056  11021.0   512.980    -39.9970  10.2598     0.0    9.2630
11066  11031.0   513.380    -39.9959  10.2609     0.0    9.2826
11076  11041.0   513.780    -39.9943  10.2626     0.0    9.2812
11086  11051.0   514.180    -39.9966  10.2603     0.0    9.2675
11096  11061.0   514.580    -39.9967  10.2602     0.0    9.2724
11106  11071.0   514.980    -39.9969  10.2600     0.0    9.2579
11116  11081.0   515.380    -39.9983  10.2585     0.0    9.2895
11126  11091.0   515.780    -39.9978  10.2591     0.0    9.2369
11136  11101.0   516.180    -39.9953  10.2616     0.0    9.2653
11146  11111.0   516.580    -39.9942  10.2627     0.0    9.2473
11156  11121.0   516.980    -39.9963  10.2606     0.0    9.1980
11166  11131.0   517.380    -39.9969  10.2600     0.0    9.2116
11176  11141.0   517.780    -39.9955  10.2614     0.0    9.2292
11186  11151.0   518.180    -39.9956  10.2613     0.0    9.2487
11196  11161.0   518.580    -39.9958  10.2610     0.0    9.2233
11206  11171.0   518.980    -39.9954  10.2615     0.0    9.2321
11216  11181.0   519.380    -39.9959  10.2610     0.0    9.2302
11226  11191.0   519.780    -39.9975  10.2594     0.0    9.2420
11236  11201.0   520.180    -39.9980  10.2588     0.0    9.2157
11246  11211.0   520.580    -39.9959  10.2610     0.0    9.2177
11256  11221.0   520.980    -39.9971  10.2597     0.0    9.2297
11266  11231.0   521.380    -39.9949  10.2619     0.0    9.2090
11276  11241.0   521.780    -39.9967  10.2601     0.0    9.2012
11286  11251.0   522.180    -39.9969  10.2600     0.0    9.2301
11296  11261.0   522.580    -39.9958  10.2610     0.0    9.2178
11306  11271.0   522.980    -39.9965  10.2604     0.0    9.1934
11316  11281.0   523.380    -39.9956  10.2613     0.0    9.1777
11326  11291.0   523.780    -39.9954  10.2615     0.0    9.2050
11336  11301.0   524.180    -39.9945  10.2623     0.0    9.1924
11346  11311.0   524.580    -39.9972  10.2597     0.0    9.1985
11356  11321.0   524.980    -39.9899  10.2669     0.0    9.2531
11366  11331.0   525.380    -39.9953  10.2616     0.0    9.1890
11376  11341.0   525.780    -39.9991  10.2578     0.0    9.1952
11386  11351.0   526.180    -39.9955  10.2613     0.0    9.1807
11396  11361.0   526.580    -39.9957  10.2611     0.0    9.1864
11406  11371.0   526.980    -39.9970  10.2599     0.0    9.2212
11416  11381.0   527.380    -39.9956  10.2613     0.0    9.2331
11426  11391.0   527.780    -39.9952  10.2617     0.0    9.2597
11436  11401.0   528.180    -39.9935  10.2633     0.0    9.2095
11446  11411.0   528.580    -39.9964  10.2604     0.0    9.1573
11456  11421.0   528.980    -39.9972  10.2596     0.0    9.1720
11466  11431.0   529.380    -39.9968  10.2601     0.0    9.1990
11476  11441.0   529.780    -39.9982  10.2586     0.0    9.1964
11486  11451.0   530.180    -39.9979  10.2590     0.0    9.2020
11496  11461.0   530.580    -39.9926  10.2643     0.0    9.2083
11506  11471.0   530.980    -39.9963  10.2605     0.0    9.1832
11516  11481.0   531.380    -39.9973  10.2595     0.0    9.1529
11526  11491.0   531.780    -39.9958  10.2610     0.0    9.1736
11536  11501.0   532.180    -39.9966  10.2602     0.0    9.1773
11546  11511.0   532.580    -39.9949  10.2620     0.0    9.1605
11556  11521.0   532.980    -39.9976  10.2593     0.0    9.1824
11566  11531.0   533.380    -39.9958  10.2611     0.0    9.1282
11576  11541.0   533.780    -39.9957  10.2612     0.0    9.2085
11586  11551.0   534.180    -39.9974  10.2595     0.0    9.1661
11596  11561.0   534.580    -39.9938  10.2631     0.0    9.1872
11606  11571.0   534.980    -39.9994  10.2574     0.0    9.1458
11616  11581.0   535.380    -39.9969  10.2600     0.0    9.1955
11626  11591.0   535.780    -39.9945  10.2623     0.0    9.1732
11636  11601.0   536.180    -39.9961  10.2608     0.0    9.1425
11646  11611.0   536.580    -39.9975  10.2594     0.0    9.1795
11656  11621.0   536.980    -39.9945  10.2623     0.0    9.1562
11666  11631.0   537.380    -39.9951  10.2617     0.0    9.1014
11676  11641.0   537.780    -39.9955  10.2613     0.0    9.1551
11686  11651.0   538.180    -39.9960  10.2609     0.0    9.1287
11696  11661.0   538.580    -39.9946  10.2622     0.0    9.1759
11706  11671.0   538.980    -39.9955  10.2613     0.0    9.1735
11716  11681.0   539.380    -39.9957  10.2611     0.0    9.1435
11726  11691.0   539.780    -39.9968  10.2601     0.0    9.1622
11736  11701.0   540.180    -39.9960  10.2609     0.0    9.1511
11746  11711.0   540.580    -39.9973  10.2596     0.0    9.1570
11756  11721.0   540.980    -39.9962  10.2607     0.0    9.1710
11766  11731.0   541.380    -39.9957  10.2611     0.0    9.1662
11776  11741.0   541.780    -39.9940  10.2629     0.0    9.1737
11786  11751.0   542.180    -39.9974  10.2595     0.0    9.1405
11796  11761.0   542.580    -39.9956  10.2613     0.0    9.1445
11806  11771.0   542.980    -39.9985  10.2584     0.0    9.1463
11816  11781.0   543.380    -39.9974  10.2594     0.0    9.1655
11826  11791.0   543.780    -39.9955  10.2613     0.0    9.1400
11836  11801.0   544.180    -39.9985  10.2584     0.0    9.1415
11846  11811.0   544.580    -39.9958  10.2611     0.0    9.1406
11856  11821.0   544.980    -39.9959  10.2610     0.0    9.1670
11866  11831.0   545.380    -39.9970  10.2598     0.0    9.1539
11876  11841.0   545.780    -39.9967  10.2602     0.0    9.1371
11886  11851.0   546.180    -39.9983  10.2585     0.0    9.1169
11903  11861.0   546.620    -39.9788  10.2781     0.0    9.4052
11913  11871.0   547.020    -39.9520  10.3049     0.0    9.7619
11923  11881.0   547.420    -39.9231  10.3337     0.0   10.1016
11933  11891.0   547.820    -39.9004  10.3565     0.0   10.3825
11943  11901.0   548.220    -39.8715  10.3853     0.0   10.6947
11953  11911.0   548.620    -39.8430  10.4139     0.0   11.0021
11963  11921.0   549.020    -39.8145  10.4424     0.0   11.2649
11973  11931.0   549.420    -39.7925  10.4644     0.0   11.4990
11983  11941.0   549.820    -39.7636  10.4933     0.0   11.7616
11993  11951.0   550.220    -39.7382  10.5187     0.0   11.9580
12003  11961.0   550.620    -39.7114  10.5455     0.0   12.1643
12013  11971.0   551.020    -39.6833  10.5736     0.0   12.4047
12023  11981.0   551.420    -39.6555  10.6014     0.0   12.5562
12033  11991.0   551.820    -39.6297  10.6272     0.0   12.7524
12043  12001.0   552.220    -39.6046  10.6523     0.0   12.8909
12053  12011.0   552.620    -39.5769  10.6800     0.0   13.0152
12063  12021.0   553.020    -39.5508  10.7061     0.0   13.2168
12073  12031.0   553.420    -39.5243  10.7326     0.0   13.3834
12083  12041.0   553.820    -39.4966  10.7602     0.0   13.5111
12093  12051.0   554.220    -39.4712  10.7856     0.0   13.6677
12103  12061.0   554.620    -39.4432  10.8137     0.0   13.8078
12113  12071.0   555.020    -39.4175  10.8394     0.0   13.9387
12123  12081.0   555.420    -39.3920  10.8649     0.0   14.0953
12133  12091.0   555.820    -39.3662  10.8906     0.0   14.1691
12143  12101.0   556.220    -39.3402  10.9166     0.0   14.3262
12153  12111.0   556.620    -39.3106  10.9463     0.0   14.4663
12163  12121.0   557.020    -39.2837  10.9732     0.0   14.5731
12173  12131.0   557.420    -39.2568  11.0000     0.0   14.7260
12183  12141.0   557.820    -39.2316  11.0253     0.0   14.8194
12193  12151.0   558.220    -39.2050  11.0519     0.0   14.9550
12203  12161.0   558.620    -39.1778  11.0790     0.0   15.0519
12213  12171.0   559.020    -39.1514  11.1055     0.0   15.2038
12223  12181.0   559.420    -39.1231  11.1338     0.0   15.2949
12233  12191.0   559.820    -39.0992  11.1577     0.0   15.3991
12243  12201.0   560.220    -39.0690  11.1879     0.0   15.5374
12253  12211.0   560.620    -39.0430  11.2139     0.0   15.6502
12263  12221.0   561.020    -39.0187  11.2382     0.0   15.7635
12273  12231.0   561.420    -38.9940  11.2629     0.0   15.8673
12283  12241.0   561.820    -38.9640  11.2929     0.0   15.9670
12299  12251.0   562.220    -38.9740  11.2829     0.0   15.5277
12309  12261.0   562.620    -38.9726  11.2842     0.0   15.4255
12319  12271.0   563.020    -38.9698  11.2870     0.0   15.3179
12329  12281.0   563.420    -38.9732  11.2837     0.0   15.1393
12339  12291.0   563.820    -38.9716  11.2852     0.0   15.0854
12349  12301.0   564.220    -38.9723  11.2846     0.0   14.9839
12359  12311.0   564.620    -38.9683  11.2886     0.0   14.9034
12369  12321.0   565.020    -38.9702  11.2867     0.0   14.8217
12379  12331.0   565.420    -38.9750  11.2819     0.0   14.7351
12389  12341.0   565.820    -38.9720  11.2848     0.0   14.6907
12399  12351.0   566.220    -38.9747  11.2821     0.0   14.6641
12409  12361.0   566.620    -38.9723  11.2845     0.0   14.5917
12419  12371.0   567.020    -38.9729  11.2840     0.0   14.5402
12429  12381.0   567.420    -38.9722  11.2847     0.0   14.5430
12439  12391.0   567.820    -38.9733  11.2836     0.0   14.5128
12450  12401.0   568.220    -38.9733  11.2835     0.0   14.4619
12460  12411.0   568.620    -38.9726  11.2843     0.0   14.4173
12470  12421.0   569.020    -38.9691  11.2877     0.0   14.4215
12480  12431.0   569.420    -38.9700  11.2869     0.0   14.4100
12490  12441.0   569.820    -38.9729  11.2840     0.0   14.3508
12500  12451.0   570.220    -38.9740  11.2829     0.0   14.3021
12510  12461.0   570.620    -38.9703  11.2866     0.0   14.2973
12520  12471.0   571.020    -38.9707  11.2862     0.0   14.3118
12530  12481.0   571.420    -38.9723  11.2846     0.0   14.2443
12540  12491.0   571.820    -38.9729  11.2840     0.0   14.1877
12550  12501.0   572.220    -38.9728  11.2841     0.0   14.1638
12560  12511.0   572.620    -38.9727  11.2842     0.0   14.1576
12570  12521.0   573.020    -38.9708  11.2861     0.0   14.1416
12580  12531.0   573.420    -38.9728  11.2841     0.0   14.0874
12590  12541.0   573.820    -38.9725  11.2844     0.0   14.1735
12600  12551.0   574.220    -38.9690  11.2879     0.0   14.0964
12610  12561.0   574.620    -38.9691  11.2878     0.0   14.0804
12620  12571.0   575.020    -38.9726  11.2843     0.0   14.0567
12630  12581.0   575.420    -38.9731  11.2838     0.0   14.0273
12640  12591.0   575.820    -38.9696  11.2873     0.0   14.0497
12650  12601.0   576.220    -38.9738  11.2831     0.0   14.0110
12660  12611.0   576.620    -38.9702  11.2867     0.0   13.9725
12670  12621.0   577.020    -38.9716  11.2853     0.0   13.9814
12680  12631.0   577.420    -38.9726  11.2843     0.0   13.9691
12690  12641.0   577.820    -38.9732  11.2837     0.0   13.9354
12700  12651.0   578.220    -38.9704  11.2864     0.0   13.9641
12710  12661.0   578.620    -38.9702  11.2867     0.0   13.9746
12720  12671.0   579.020    -38.9725  11.2843     0.0   13.9331
12730  12681.0   579.420    -38.9710  11.2858     0.0   13.9356
12740  12691.0   579.820    -38.9719  11.2850     0.0   13.8882
12750  12701.0   580.220    -38.9703  11.2866     0.0   13.8483
12760  12711.0   580.620    -38.9696  11.2872     0.0   13.8472
12770  12721.0   581.020    -38.9705  11.2864     0.0   13.8077
12780  12731.0   581.420    -38.9727  11.2842     0.0   13.8286
12790  12741.0   581.820    -38.9732  11.2837     0.0   13.8205
12800  12751.0   582.220    -38.9760  11.2808     0.0   13.7904
12810  12761.0   582.620    -38.9691  11.2877     0.0   13.7844
12820  12771.0   583.020    -38.9720  11.2849     0.0   13.8626
12830  12781.0   583.420    -38.9709  11.2860     0.0   13.7889
12840  12791.0   583.820    -38.9705  11.2864     0.0   13.7549
12850  12801.0   584.220    -38.9742  11.2826     0.0   13.6924
12860  12811.0   584.620    -38.9733  11.2836     0.0   13.6968
12870  12821.0   585.020    -38.9724  11.2845     0.0   13.6728
12880  12831.0   585.420    -38.9712  11.2857     0.0   13.6416
12890  12841.0   585.820    -38.9728  11.2840     0.0   13.6188
12900  12851.0   586.220    -38.9720  11.2849     0.0   13.6465
12910  12861.0   586.620    -38.9720  11.2849     0.0   13.6350
12920  12871.0   587.020    -38.9694  11.2875     0.0   13.6460
12930  12881.0   587.420    -38.9714  11.2854     0.0   13.5973
12940  12891.0   587.820    -38.9712  11.2856     0.0   13.5914
12950  12901.0   588.220    -38.9732  11.2837     0.0   13.5649
12960  12911.0   588.620    -38.9736  11.2833     0.0   13.5667
12970  12921.0   589.020    -38.9726  11.2842     0.0   13.5671
12980  12931.0   589.420    -38.9723  11.2845     0.0   13.5481
12990  12941.0   589.820    -38.9731  11.2838     0.0   13.5386
13000  12951.0   590.220    -38.9725  11.2844     0.0   13.5532
13010  12961.0   590.620    -38.9732  11.2837     0.0   13.5094
13020  12971.0   591.020    -38.9704  11.2864     0.0   13.5354
13030  12981.0   591.420    -38.9710  11.2859     0.0   13.5538
13040  12991.0   591.820    -38.9720  11.2849     0.0   13.5791
13050  13001.0   592.220    -38.9714  11.2855     0.0   13.5587
13060  13011.0   592.620    -38.9717  11.2852     0.0   13.5542
13070  13021.0   593.020    -38.9725  11.2844     0.0   13.5638
13080  13031.0   593.420    -38.9721  11.2848     0.0   13.6980
13090  13041.0   593.820    -38.9722  11.2847     0.0   13.7845
13100  13051.0   594.220    -38.9739  11.2830     0.0   13.6681
13110  13061.0   594.620    -38.9749  11.2819     0.0   13.6548
13120  13071.0   595.020    -38.9724  11.2845     0.0   13.6661
13130  13081.0   595.420    -38.9717  11.2852     0.0   13.6740
13140  13091.0   595.820    -38.9721  11.2847     0.0   13.6008
13150  13101.0   596.220    -38.9709  11.2859     0.0   13.6177
13160  13111.0   596.620    -38.9738  11.2831     0.0   13.5853
13170  13121.0   597.020    -38.9721  11.2847     0.0   13.5702
13180  13131.0   597.420    -38.9698  11.2871     0.0   13.5808
13190  13141.0   597.820    -38.9714  11.2854     0.0   13.5968
13200  13151.0   598.220    -38.9709  11.2859     0.0   13.6504
13210  13161.0   598.620    -38.9704  11.2865     0.0   13.5338
13220  13171.0   599.020    -38.9733  11.2836     0.0   13.4074
13230  13181.0   599.420    -38.9747  11.2822     0.0   13.3857
13240  13191.0   599.820    -38.9732  11.2837     0.0   13.3516
13250  13201.0   600.220    -38.9728  11.2841     0.0   13.3371
13260  13211.0   600.620    -38.9724  11.2845     0.0   13.2781
13270  13221.0   601.020    -38.9730  11.2838     0.0   13.2843
13280  13231.0   601.420    -38.9710  11.2858     0.0   13.2449
13290  13241.0   601.820    -38.9720  11.2849     0.0   13.2847
13300  13251.0   602.220    -38.9694  11.2875     0.0   13.2727
13310  13261.0   602.620    -38.9730  11.2838     0.0   13.2436
13320  13271.0   603.020    -38.9701  11.2868     0.0   13.2653
13330  13281.0   603.420    -38.9682  11.2887     0.0   13.2736
13340  13291.0   603.820    -38.9713  11.2856     0.0   13.2506
13350  13301.0   604.220    -38.9741  11.2827     0.0   13.2398
13360  13311.0   604.620    -38.9731  11.2838     0.0   13.2422
13370  13321.0   605.020    -38.9709  11.2859     0.0   13.2416
13380  13331.0   605.420    -38.9705  11.2863     0.0   13.2385
13390  13341.0   605.820    -38.9694  11.2874     0.0   13.2400
13400  13351.0   606.220    -38.9740  11.2828     0.0   13.2082
13410  13361.0   606.620    -38.9737  11.2832     0.0   13.2378
13420  13371.0   607.020    -38.9715  11.2853     0.0   13.2718
13430  13381.0   607.420    -38.9722  11.2846     0.0   13.2302
13440  13391.0   607.820    -38.9720  11.2849     0.0   13.2426
13450  13401.0   608.220    -38.9703  11.2866     0.0   13.1870
13460  13411.0   608.620    -38.9719  11.2850     0.0   13.1700
13470  13421.0   609.020    -38.9708  11.2860     0.0   13.1904
13480  13431.0   609.420    -38.9724  11.2845     0.0   13.1838
13490  13441.0   609.820    -38.9719  11.2849     0.0   13.1932
13500  13451.0   610.220    -38.9726  11.2843     0.0   13.1343
13510  13461.0   610.620    -38.9716  11.2852     0.0   13.1465
13520  13471.0   611.020    -38.9708  11.2861     0.0   13.1613
13530  13481.0   611.420    -38.9723  11.2846     0.0   13.1632
13540  13491.0   611.820    -38.9734  11.2835     0.0   13.1396
13550  13501.0   612.220    -38.9712  11.2856     0.0   13.1974
13560  13511.0   612.620    -38.9722  11.2847     0.0   13.1947
13570  13521.0   613.020    -38.9717  11.2851     0.0   13.1632
13580  13531.0   613.420    -38.9741  11.2827     0.0   13.1423
13590  13541.0   613.820    -38.9724  11.2844     0.0   13.1276
13600  13551.0   614.220    -38.9712  11.2857     0.0   13.1129
13610  13561.0   614.620    -38.9715  11.2854     0.0   13.1611
13620  13571.0   615.020    -38.9716  11.2853     0.0   13.1158
13630  13581.0   615.420    -38.9735  11.2833     0.0   13.1118
13640  13591.0   615.820    -38.9720  11.2849     0.0   13.1437
13650  13601.0   616.220    -38.9729  11.2840     0.0   13.0863
13660  13611.0   616.620    -38.9723  11.2846     0.0   13.1221
13670  13621.0   617.020    -38.9749  11.2819     0.0   13.0772
13680  13631.0   617.420    -38.9723  11.2845     0.0   13.0412
13690  13641.0   617.820    -38.9705  11.2863     0.0   13.0781
13700  13651.0   618.220    -38.9722  11.2847     0.0   13.0836
13710  13661.0   618.620    -38.9724  11.2845     0.0   13.1024
13720  13671.0   619.020    -38.9717  11.2852     0.0   13.0752
13730  13681.0   619.420    -38.9734  11.2835     0.0   13.0558
13740  13691.0   619.820    -38.9718  11.2851     0.0   13.0346
13750  13701.0   620.220    -38.9728  11.2841     0.0   13.0370
13760  13711.0   620.620    -38.9727  11.2842     0.0   13.0403
13770  13721.0   621.020    -38.9716  11.2852     0.0   13.0592
13780  13731.0   621.420    -38.9723  11.2846     0.0   13.0969
13790  13741.0   621.820    -38.9670  11.2898     0.0   13.1303
13800  13751.0   622.220    -38.9706  11.2863     0.0   13.0953
13810  13761.0   622.620    -38.9714  11.2854     0.0   13.0522
13820  13771.0   623.020    -38.9729  11.2840     0.0   13.0155
13830  13781.0   623.420    -38.9709  11.2859     0.0   13.0809
13840  13791.0   623.820    -38.9710  11.2859     0.0   13.0550
13850  13801.0   624.220    -38.9703  11.2866     0.0   13.1024
13860  13811.0   624.620    -38.9725  11.2843     0.0   13.0047
13870  13821.0   625.020    -38.9722  11.2847     0.0   13.0424
13880  13831.0   625.420    -38.9728  11.2841     0.0   13.0226
13890  13841.0   625.820    -38.9742  11.2826     0.0   13.0484
13900  13851.0   626.220    -38.9728  11.2841     0.0   13.1084
13910  13861.0   626.620    -38.9728  11.2841     0.0   13.0384
13920  13871.0   627.020    -38.9710  11.2858     0.0   13.0611
13930  13881.0   627.420    -38.9727  11.2841     0.0   13.0118
13940  13891.0   627.820    -38.9737  11.2831     0.0   13.0358
13950  13901.0   628.220    -38.9737  11.2832     0.0   13.0027
13960  13911.0   628.620    -38.9718  11.2851     0.0   12.9949
13970  13921.0   629.020    -38.9727  11.2842     0.0   12.9744
13980  13931.0   629.420    -38.9723  11.2845     0.0   12.9474
13990  13941.0   629.820    -38.9729  11.2840     0.0   12.9635
14000  13951.0   630.220    -38.9701  11.2868     0.0   12.9525
14010  13961.0   630.620    -38.9706  11.2862     0.0   12.9811
14020  13971.0   631.020    -38.9712  11.2857     0.0   12.9355
14030  13981.0   631.420    -38.9720  11.2849     0.0   12.9483
14040  13991.0   631.820    -38.9704  11.2865     0.0   12.9776
14050  14001.0   632.220    -38.9727  11.2842     0.0   12.9675
14060  14011.0   632.620    -38.9726  11.2842     0.0   12.9596
14070  14021.0   633.020    -38.9743  11.2825     0.0   12.9653
14080  14031.0   633.420    -38.9735  11.2834     0.0   12.9412
14090  14041.0   633.820    -38.9716  11.2853     0.0   12.9429
14100  14051.0   634.220    -38.9706  11.2863     0.0   12.9409
14110  14061.0   634.620    -38.9716  11.2853     0.0   12.9772
14120  14071.0   635.020    -38.9709  11.2860     0.0   12.9314
14130  14081.0   635.420    -38.9720  11.2848     0.0   12.9077
14140  14091.0   635.820    -38.9711  11.2857     0.0   12.8896
14150  14101.0   636.220    -38.9725  11.2844     0.0   12.8826
14160  14111.0   636.620    -38.9728  11.2841     0.0   12.8958
14170  14121.0   637.020    -38.9726  11.2843     0.0   12.8905
14180  14131.0   637.420    -38.9720  11.2848     0.0   12.8783
14190  14141.0   637.820    -38.9722  11.2846     0.0   12.8767
14200  14151.0   638.220    -38.9698  11.2870     0.0   12.9258
14210  14161.0   638.620    -38.9709  11.2859     0.0   12.8973
14220  14171.0   639.020    -38.9729  11.2840     0.0   12.8542
14230  14181.0   639.420    -38.9707  11.2862     0.0   12.8632
14240  14191.0   639.820    -38.9739  11.2830     0.0   12.8908
14250  14201.0   640.220    -38.9717  11.2851     0.0   12.8557
14260  14211.0   640.620    -38.9699  11.2870     0.0   12.8665
14270  14221.0   641.020    -38.9731  11.2838     0.0   12.8836
14280  14231.0   641.420    -38.9719  11.2849     0.0   12.8229
14290  14241.0   641.820    -38.9720  11.2849     0.0   12.8639
14300  14251.0   642.220    -38.9731  11.2837     0.0   12.8662
14310  14261.0   642.620    -38.9736  11.2833     0.0   12.8691
14320  14271.0   643.020    -38.9718  11.2850     0.0   12.8576
14330  14281.0   643.420    -38.9719  11.2850     0.0   12.8863
14340  14291.0   643.820    -38.9724  11.2844     0.0   12.8515
14350  14301.0   644.220    -38.9725  11.2843     0.0   12.8770
14360  14311.0   644.620    -38.9730  11.2839     0.0   12.8387
14370  14321.0   645.020    -38.9730  11.2839     0.0   12.9001
14380  14331.0   645.420    -38.9702  11.2867     0.0   12.9035
14390  14341.0   645.820    -38.9712  11.2857     0.0   12.8676
14400  14351.0   646.220    -38.9729  11.2839     0.0   12.8146
14410  14361.0   646.620    -38.9702  11.2867     0.0   12.8514
14420  14371.0   647.020    -38.9727  11.2842     0.0   12.8161
14430  14381.0   647.420    -38.9719  11.2850     0.0   12.8224
14440  14391.0   647.820    -38.9715  11.2854     0.0   12.8397
14450  14401.0   648.220    -38.9728  11.2841     0.0   12.7928
14460  14411.0   648.620    -38.9700  11.2868     0.0   12.8053
14470  14421.0   649.020    -38.9712  11.2857     0.0   12.7970
14480  14431.0   649.420    -38.9717  11.2851     0.0   12.8682
14490  14441.0   649.820    -38.9714  11.2854     0.0   12.8473
14500  14451.0   650.220    -38.9700  11.2869     0.0   12.8276
14510  14461.0   650.620    -38.9699  11.2870     0.0   12.8185
14520  14471.0   651.020    -38.9706  11.2862     0.0   12.8285
14530  14481.0   651.420    -38.9691  11.2877     0.0   12.8153
14540  14491.0   651.820    -38.9723  11.2846     0.0   12.7594
14550  14501.0   652.220    -38.9727  11.2842     0.0   12.8652
14560  14511.0   652.620    -38.9702  11.2866     0.0   12.8689
14570  14521.0   653.020    -38.9709  11.2860     0.0   12.8787
14580  14531.0   653.420    -38.9748  11.2821     0.0   12.8777
14590  14541.0   653.820    -38.9699  11.2869     0.0   12.9052
14600  14551.0   654.220    -38.9701  11.2868     0.0   12.8838
14610  14561.0   654.620    -38.9729  11.2840     0.0   12.8780
14620  14571.0   655.020    -38.9735  11.2833     0.0   12.9174
14630  14581.0   655.420    -38.9724  11.2845     0.0   12.8916
14640  14591.0   655.820    -38.9734  11.2835     0.0   12.9068
14650  14601.0   656.220    -38.9745  11.2824     0.0   12.8924
14660  14611.0   656.620    -38.9695  11.2873     0.0   12.8996
14670  14621.0   657.020    -38.9714  11.2855     0.0   12.8830
14680  14631.0   657.420    -38.9739  11.2830     0.0   12.8781
14690  14641.0   657.820    -38.9683  11.2886     0.0   12.9279
14700  14651.0   658.220    -38.9717  11.2852     0.0   12.8482
14710  14661.0   658.620    -38.9725  11.2844     0.0   12.8523
14720  14671.0   659.020    -38.9754  11.2815     0.0   12.8385
14730  14681.0   659.420    -38.9701  11.2868     0.0   12.8176
14740  14691.0   659.820    -38.9690  11.2878     0.0   12.8536
14750  14701.0   660.220    -38.9729  11.2840     0.0   12.8299
14760  14711.0   660.620    -38.9726  11.2843     0.0   12.8318
14770  14721.0   661.020    -38.9699  11.2870     0.0   12.8285
14780  14731.0   661.420    -38.9726  11.2843     0.0   12.8049
14790  14741.0   661.820    -38.9686  11.2882     0.0   12.7892
14800  14751.0   662.220    -38.9706  11.2863     0.0   12.7543
14810  14761.0   662.620    -38.9706  11.2863     0.0   12.7698
14820  14771.0   663.020    -38.9694  11.2874     0.0   12.7831
14830  14781.0   663.420    -38.9719  11.2850     0.0   12.7121
14840  14791.0   663.820    -38.9706  11.2862     0.0   12.7238
14850  14801.0   664.220    -38.9730  11.2839     0.0   12.7278
14860  14811.0   664.620    -38.9701  11.2868     0.0   12.7207
14870  14821.0   665.020    -38.9705  11.2863     0.0   12.7148
14880  14831.0   665.420    -38.9693  11.2875     0.0   12.7324
14890  14841.0   665.820    -38.9715  11.2854     0.0   12.6726
14900  14851.0   666.220    -38.9699  11.2870     0.0   12.7340
14910  14861.0   666.620    -38.9711  11.2858     0.0   12.7232
14920  14871.0   667.020    -38.9735  11.2834     0.0   12.7002
14930  14881.0   667.420    -38.9734  11.2835     0.0   12.6423
14940  14891.0   667.820    -38.9704  11.2864     0.0   12.6362
14950  14901.0   668.220    -38.9707  11.2861     0.0   12.6378
14960  14911.0   668.620    -38.9715  11.2853     0.0   12.6534
14970  14921.0   669.020    -38.9726  11.2843     0.0   12.6452
14980  14931.0   669.420    -38.9731  11.2838     0.0   12.6491
14990  14941.0   669.820    -38.9714  11.2855     0.0   12.6558
15000  14951.0   670.220    -38.9718  11.2850     0.0   12.6608
15010  14961.0   670.620    -38.9729  11.2839     0.0   12.6332
15020  14971.0   671.020    -38.9717  11.2852     0.0   12.6307
15030  14981.0   671.420    -38.9733  11.2836     0.0   12.6347
15040  14991.0   671.820    -38.9719  11.2850     0.0   12.6794
15050  15001.0   672.220    -38.9721  11.2847     0.0   12.6555
15060  15011.0   672.620    -38.9698  11.2871     0.0   12.6288
15070  15021.0   673.020    -38.9745  11.2824     0.0   12.6375
15080  15031.0   673.420    -38.9715  11.2853     0.0   12.6432
15090  15041.0   673.820    -38.9728  11.2841     0.0   12.6539
15100  15051.0   674.220    -38.9729  11.2839     0.0   12.6225
15110  15061.0   674.620    -38.9709  11.2860     0.0   12.6480
15120  15071.0   675.020    -38.9710  11.2859     0.0   12.6109
15130  15081.0   675.420    -38.9737  11.2832     0.0   12.6235
15140  15091.0   675.820    -38.9704  11.2865     0.0   12.6268
15150  15101.0   676.220    -38.9731  11.2837     0.0   12.6332
15160  15111.0   676.620    -38.9747  11.2822     0.0   12.6045
15170  15121.0   677.020    -38.9721  11.2848     0.0   12.6532
15180  15131.0   677.420    -38.9708  11.2861     0.0   12.5926
15190  15141.0   677.820    -38.9707  11.2862     0.0   12.5659
15200  15151.0   678.220    -38.9730  11.2839     0.0   12.5847
15210  15161.0   678.620    -38.9715  11.2854     0.0   12.6141
15220  15171.0   679.020    -38.9734  11.2835     0.0   12.6173
15230  15181.0   679.420    -38.9708  11.2861     0.0   12.6001
15240  15191.0   679.820    -38.9712  11.2856     0.0   12.6317
15250  15201.0   680.220    -38.9727  11.2842     0.0   12.6378
15260  15211.0   680.620    -38.9707  11.2862     0.0   12.6553
15270  15221.0   681.020    -38.9690  11.2879     0.0   12.6658
15280  15231.0   681.420    -38.9707  11.2861     0.0   12.6199
15290  15241.0   681.820    -38.9711  11.2858     0.0   12.6333
15300  15251.0   682.220    -38.9720  11.2849     0.0   12.6612
15310  15261.0   682.620    -38.9708  11.2860     0.0   12.6296
15320  15271.0   683.020    -38.9729  11.2839     0.0   12.6318
15330  15281.0   683.420    -38.9736  11.2832     0.0   12.6129
15340  15291.0   683.820    -38.9701  11.2868     0.0   12.6151
15350  15301.0   684.220    -38.9723  11.2846     0.0   12.6425
15360  15311.0   684.620    -38.9707  11.2861     0.0   12.5909
15370  15321.0   685.020    -38.9725  11.2844     0.0   12.6374
15380  15331.0   685.420    -38.9714  11.2855     0.0   12.6575
15390  15341.0   685.820    -38.9713  11.2855     0.0   12.6005
15400  15351.0   686.220    -38.9737  11.2832     0.0   12.5631
15410  15361.0   686.620    -38.9723  11.2846     0.0   12.5917
15420  15371.0   687.020    -38.9703  11.2865     0.0   12.5682
15430  15381.0   687.420    -38.9711  11.2858     0.0   12.5634
15440  15391.0   687.820    -38.9702  11.2867     0.0   12.5394
15450  15401.0   688.220    -38.9704  11.2865     0.0   12.5130
15460  15411.0   688.620    -38.9754  11.2814     0.0   12.5568
15470  15421.0   689.020    -38.9711  11.2858     0.0   12.5724
15480  15431.0   689.420    -38.9699  11.2870     0.0   12.5386
15490  15441.0   689.820    -38.9724  11.2845     0.0   12.5610
15500  15451.0   690.220    -38.9720  11.2849     0.0   12.5755
15510  15461.0   690.620    -38.9718  11.2851     0.0   12.5712
15520  15471.0   691.020    -38.9730  11.2838     0.0   12.5423
15530  15481.0   691.420    -38.9697  11.2872     0.0   12.5532
15540  15491.0   691.820    -38.9712  11.2856     0.0   12.5103
15550  15501.0   692.220    -38.9717  11.2851     0.0   12.5228
15560  15511.0   692.620    -38.9708  11.2861     0.0   12.5610
15570  15521.0   693.020    -38.9710  11.2859     0.0   12.5679
15580  15531.0   693.420    -38.9727  11.2842     0.0   12.4948
15590  15541.0   693.820    -38.9719  11.2850     0.0   12.5251
15600  15551.0   694.220    -38.9723  11.2846     0.0   12.5023
15610  15561.0   694.620    -38.9711  11.2858     0.0   12.5294
15620  15571.0   695.020    -38.9707  11.2862     0.0   12.5427
15630  15581.0   695.420    -38.9708  11.2861     0.0   12.5524
15640  15591.0   695.820    -38.9698  11.2870     0.0   12.5473
15650  15601.0   696.220    -38.9716  11.2852     0.0   12.5601
15660  15611.0   696.620    -38.9704  11.2865     0.0   12.4920
15670  15621.0   697.020    -38.9724  11.2844     0.0   12.5623
15680  15631.0   697.420    -38.9700  11.2868     0.0   12.5198
15690  15641.0   697.820    -38.9702  11.2867     0.0   12.5087
15700  15651.0   698.220    -38.9715  11.2854     0.0   12.5128
15710  15661.0   698.620    -38.9693  11.2876     0.0   12.5239
15720  15671.0   699.020    -38.9727  11.2842     0.0   12.5129
15730  15681.0   699.420    -38.9719  11.2850     0.0   12.5025
15740  15691.0   699.820    -38.9709  11.2860     0.0   12.5051
15750  15701.0   700.220    -38.9708  11.2861     0.0   12.5271
15760  15711.0   700.620    -38.9723  11.2846     0.0   12.5183
15770  15721.0   701.020    -38.9707  11.2862     0.0   12.5398
15780  15731.0   701.420    -38.9684  11.2885     0.0   12.6088
15790  15741.0   701.820    -38.9713  11.2856     0.0   12.5198
15800  15751.0   702.220    -38.9712  11.2856     0.0   12.5284
15810  15761.0   702.620    -38.9732  11.2836     0.0   12.4779
15820  15771.0   703.020    -38.9719  11.2850     0.0   12.4799
15830  15781.0   703.420    -38.9689  11.2880     0.0   12.4996
15840  15791.0   703.820    -38.9745  11.2823     0.0   12.5061
15850  15801.0   704.220    -38.9740  11.2829     0.0   12.4859
15860  15811.0   704.620    -38.9711  11.2857     0.0   12.4785
15870  15821.0   705.020    -38.9684  11.2885     0.0   12.5881
15880  15831.0   705.420    -38.9717  11.2852     0.0   12.5013
15890  15841.0   705.820    -38.9733  11.2835     0.0   12.5181
15900  15851.0   706.220    -38.9719  11.2850     0.0   12.5325
15910  15861.0   706.620    -38.9698  11.2870     0.0   12.5448
15920  15871.0   707.020    -38.9724  11.2845     0.0   12.4978
15930  15881.0   707.420    -38.9740  11.2828     0.0   12.5188
15940  15891.0   707.820    -38.9721  11.2847     0.0   12.5920
15950  15901.0   708.220    -38.9709  11.2859     0.0   12.5547
15960  15911.0   708.620    -38.9716  11.2852     0.0   12.5159
15970  15921.0   709.020    -38.9726  11.2843     0.0   12.5469
15980  15931.0   709.420    -38.9733  11.2836     0.0   12.5554
15990  15941.0   709.820    -38.9716  11.2852     0.0   12.5611
16000  15951.0   710.220    -38.9729  11.2839     0.0   12.5270
16010  15961.0   710.620    -38.9721  11.2847     0.0   12.5575
16020  15971.0   711.020    -38.9737  11.2831     0.0   12.5286
16030  15981.0   711.420    -38.9729  11.2839     0.0   12.5013
16040  15991.0   711.820    -38.9686  11.2883     0.0   12.5712
16050  16001.0   712.220    -38.9717  11.2852     0.0   12.5238
16060  16011.0   712.620    -38.9721  11.2848     0.0   12.5448
16070  16021.0   713.020    -38.9724  11.2845     0.0   12.4775
16080  16031.0   713.420    -38.9720  11.2849     0.0   12.5098
16090  16041.0   713.820    -38.9724  11.2844     0.0   12.4806
16100  16051.0   714.220    -38.9721  11.2847     0.0   12.4769
16110  16061.0   714.620    -38.9696  11.2872     0.0   12.4951
16120  16071.0   715.020    -38.9722  11.2847     0.0   12.4601
16130  16081.0   715.420    -38.9732  11.2837     0.0   12.4673
16140  16091.0   715.820    -38.9722  11.2847     0.0   12.4707
16150  16101.0   716.220    -38.9723  11.2845     0.0   12.4595
16160  16111.0   716.620    -38.9738  11.2831     0.0   12.3889
16170  16121.0   717.020    -38.9735  11.2834     0.0   12.3828
16180  16131.0   717.420    -38.9696  11.2873     0.0   12.4065
16190  16141.0   717.820    -38.9709  11.2860     0.0   12.4344
16200  16151.0   718.220    -38.9723  11.2846     0.0   12.4013
16210  16161.0   718.620    -38.9720  11.2849     0.0   12.4074
16220  16171.0   719.020    -38.9737  11.2832     0.0   12.4246
16230  16181.0   719.420    -38.9703  11.2865     0.0   12.5180
16240  16191.0   719.820    -38.9711  11.2857     0.0   12.4810
16250  16201.0   720.220    -38.9732  11.2837     0.0   12.4310
16260  16211.0   720.620    -38.9713  11.2856     0.0   12.4506
16270  16221.0   721.020    -38.9727  11.2841     0.0   12.3905
16280  16231.0   721.420    -38.9712  11.2857     0.0   12.4003
16290  16241.0   721.820    -38.9701  11.2868     0.0   12.4506
16300  16251.0   722.220    -38.9735  11.2833     0.0   12.4439
16310  16261.0   722.620    -38.9694  11.2875     0.0   12.4754
16320  16271.0   723.020    -38.9745  11.2823     0.0   12.4285
16330  16281.0   723.420    -38.9734  11.2834     0.0   12.4025
16340  16291.0   723.820    -38.9696  11.2873     0.0   12.4042
16350  16301.0   724.220    -38.9729  11.2840     0.0   12.3981
16360  16311.0   724.620    -38.9720  11.2849     0.0   12.3889
16370  16321.0   725.020    -38.9712  11.2857     0.0   12.4151
16380  16331.0   725.420    -38.9716  11.2853     0.0   12.4419
16390  16341.0   725.820    -38.9702  11.2866     0.0   12.4377
16400  16351.0   726.220    -38.9730  11.2839     0.0   12.4095
16410  16361.0   726.620    -38.9717  11.2852     0.0   12.4269
16420  16371.0   727.020    -38.9709  11.2859     0.0   12.4160
16430  16381.0   727.420    -38.9713  11.2855     0.0   12.4173
16440  16391.0   727.820    -38.9729  11.2840     0.0   12.3913
16450  16401.0   728.220    -38.9717  11.2851     0.0   12.4005
16460  16411.0   728.620    -38.9735  11.2834     0.0   12.3964
16470  16421.0   729.020    -38.9714  11.2855     0.0   12.4297
16480  16431.0   729.420    -38.9715  11.2854     0.0   12.4180
16490  16441.0   729.820    -38.9730  11.2838     0.0   12.4282
16500  16451.0   730.220    -38.9719  11.2850     0.0   12.4147
16510  16461.0   730.620    -38.9723  11.2846     0.0   12.3935
16520  16471.0   731.020    -38.9733  11.2835     0.0   12.3814
16530  16481.0   731.420    -38.9720  11.2849     0.0   12.3862
16540  16491.0   731.820    -38.9723  11.2846     0.0   12.3527
16550  16501.0   732.220    -38.9720  11.2849     0.0   12.3929
16560  16511.0   732.620    -38.9702  11.2866     0.0   12.4242
16570  16521.0   733.020    -38.9724  11.2845     0.0   12.3801
16580  16531.0   733.420    -38.9735  11.2834     0.0   12.3721
16590  16541.0   733.820    -38.9697  11.2872     0.0   12.3627
16600  16551.0   734.220    -38.9709  11.2859     0.0   12.3657
16610  16561.0   734.620    -38.9702  11.2866     0.0   12.3787
16620  16571.0   735.020    -38.9697  11.2871     0.0   12.3697
16630  16581.0   735.420    -38.9723  11.2845     0.0   12.3552
16640  16591.0   735.820    -38.9729  11.2840     0.0   12.3454
16650  16601.0   736.220    -38.9739  11.2829     0.0   12.3637
16660  16611.0   736.620    -38.9723  11.2846     0.0   12.4220
16670  16621.0   737.020    -38.9711  11.2858     0.0   12.3118
16680  16631.0   737.420    -38.9726  11.2842     0.0   12.3308
16690  16641.0   737.820    -38.9704  11.2864     0.0   12.3531
16700  16651.0   738.220    -38.9712  11.2856     0.0   12.3714
16710  16661.0   738.620    -38.9701  11.2867     0.0   12.4009
16720  16671.0   739.020    -38.9699  11.2870     0.0   12.3425
16730  16681.0   739.420    -38.9719  11.2849     0.0   12.3469
16740  16691.0   739.820    -38.9723  11.2846     0.0   12.3774
16750  16701.0   740.220    -38.9694  11.2875     0.0   12.3685
16760  16711.0   740.620    -38.9706  11.2863     0.0   12.3591
16770  16721.0   741.020    -38.9717  11.2852     0.0   12.3172
16780  16731.0   741.420    -38.9729  11.2839     0.0   12.3185
16790  16741.0   741.820    -38.9723  11.2846     0.0   12.3296
16800  16751.0   742.220    -38.9697  11.2871     0.0   12.2990
16810  16761.0   742.620    -38.9721  11.2848     0.0   12.3250
16820  16771.0   743.020    -38.9718  11.2851     0.0   12.3117
16830  16781.0   743.420    -38.9703  11.2865     0.0   12.3035
16840  16791.0   743.820    -38.9726  11.2842     0.0   12.2292
16850  16801.0   744.220    -38.9701  11.2867     0.0   12.2931
16860  16811.0   744.620    -38.9724  11.2845     0.0   12.2932
16870  16821.0   745.020    -38.9721  11.2848     0.0   12.3137
16880  16831.0   745.420    -38.9736  11.2832     0.0   12.3508
16890  16841.0   745.820    -38.9706  11.2862     0.0   12.3793
16900  16851.0   746.220    -38.9727  11.2841     0.0   12.3922
16910  16861.0   746.620    -38.9703  11.2865     0.0   12.4033
16920  16871.0   747.020    -38.9720  11.2849     0.0   12.3666
16930  16881.0   747.420    -38.9711  11.2858     0.0   12.3669
16940  16891.0   747.820    -38.9723  11.2845     0.0   12.3365
16950  16901.0   748.220    -38.9720  11.2849     0.0   12.3388
16960  16911.0   748.620    -38.9722  11.2847     0.0   12.3244
16970  16921.0   749.020    -38.9714  11.2855     0.0   12.3466
16980  16931.0   749.420    -38.9708  11.2860     0.0   12.3521
16990  16941.0   749.820    -38.9737  11.2831     0.0   12.3498
17000  16951.0   750.220    -38.9710  11.2858     0.0   12.3530
17010  16961.0   750.620    -38.9725  11.2844     0.0   12.3471
17020  16971.0   751.020    -38.9728  11.2841     0.0   12.3154
17030  16981.0   751.420    -38.9719  11.2849     0.0   12.3637
17040  16991.0   751.820    -38.9725  11.2844     0.0   12.4097
17050  17001.0   752.220    -38.9711  11.2857     0.0   12.3784
17060  17011.0   752.620    -38.9710  11.2858     0.0   12.3713
17070  17021.0   753.020    -38.9720  11.2849     0.0   12.3314
17080  17031.0   753.420    -38.9717  11.2852     0.0   12.3133
17090  17041.0   753.820    -38.9717  11.2852     0.0   12.3158
17100  17051.0   754.220    -38.9686  11.2883     0.0   12.3442
17110  17061.0   754.620    -38.9704  11.2864     0.0   12.3201
17120  17071.0   755.020    -38.9717  11.2852     0.0   12.2810
17130  17081.0   755.420    -38.9727  11.2842     0.0   12.2930
17140  17091.0   755.820    -38.9712  11.2857     0.0   12.3371
17150  17101.0   756.220    -38.9707  11.2862     0.0   12.3593
17160  17111.0   756.620    -38.9713  11.2856     0.0   12.3376
17170  17121.0   757.020    -38.9718  11.2850     0.0   12.3292
17180  17131.0   757.420    -38.9725  11.2844     0.0   12.2919
17190  17141.0   757.820    -38.9724  11.2845     0.0   12.3042
17200  17151.0   758.220    -38.9712  11.2857     0.0   12.3001
17210  17161.0   758.620    -38.9733  11.2836     0.0   12.2971
17220  17171.0   759.020    -38.9713  11.2856     0.0   12.3051
17230  17181.0   759.420    -38.9728  11.2841     0.0   12.2938
17240  17191.0   759.820    -38.9717  11.2852     0.0   12.2726
17250  17201.0   760.220    -38.9726  11.2843     0.0   12.2850
17260  17211.0   760.620    -38.9721  11.2847     0.0   12.2566
17270  17221.0   761.020    -38.9734  11.2835     0.0   12.2551
17280  17231.0   761.420    -38.9716  11.2852     0.0   12.2785
17290  17241.0   761.820    -38.9731  11.2837     0.0   12.2763
17300  17251.0   762.220    -38.9698  11.2871     0.0   12.3263
17310  17261.0   762.620    -38.9710  11.2859     0.0   12.2733
17320  17271.0   763.020    -38.9675  11.2894     0.0   12.2749
17330  17281.0   763.420    -38.9700  11.2868     0.0   12.2667
17340  17291.0   763.820    -38.9707  11.2862     0.0   12.2962
17350  17301.0   764.220    -38.9731  11.2838     0.0   12.2612
17360  17311.0   764.620    -38.9704  11.2865     0.0   12.2781
17370  17321.0   765.020    -38.9715  11.2853     0.0   12.2475
17380  17331.0   765.420    -38.9725  11.2844     0.0   12.2563
17390  17341.0   765.820    -38.9717  11.2851     0.0   12.2621
17400  17351.0   766.220    -38.9720  11.2848     0.0   12.3039
17410  17361.0   766.620    -38.9718  11.2851     0.0   12.3362
17420  17371.0   767.020    -38.9692  11.2877     0.0   12.3782
17430  17381.0   767.420    -38.9711  11.2857     0.0   12.3511
17440  17391.0   767.820    -38.9704  11.2865     0.0   12.3627
17450  17401.0   768.220    -38.9707  11.2861     0.0   12.3938
17460  17411.0   768.620    -38.9706  11.2863     0.0   12.4026
17470  17421.0   769.020    -38.9714  11.2855     0.0   12.3204
17480  17431.0   769.420    -38.9727  11.2842     0.0   12.2722
17490  17441.0   769.820    -38.9723  11.2846     0.0   12.2624
17500  17451.0   770.220    -38.9716  11.2853     0.0   12.2552
17510  17461.0   770.620    -38.9737  11.2831     0.0   12.2309
17520  17471.0   771.020    -38.9724  11.2845     0.0   12.2705
17530  17481.0   771.420    -38.9729  11.2839     0.0   12.2260
17540  17491.0   771.820    -38.9720  11.2848     0.0   12.2430
17550  17501.0   772.220    -38.9719  11.2850     0.0   12.2334
17560  17511.0   772.620    -38.9701  11.2868     0.0   12.2351
17570  17521.0   773.020    -38.9726  11.2843     0.0   12.2356
17580  17531.0   773.420    -38.9704  11.2865     0.0   12.3496
17590  17541.0   773.820    -38.9712  11.2856     0.0   12.3428
17600  17551.0   774.220    -38.9726  11.2843     0.0   12.3314
17610  17561.0   774.620    -38.9726  11.2843     0.0   12.3343
17620  17571.0   775.020    -38.9726  11.2842     0.0   12.3366
17630  17581.0   775.420    -38.9695  11.2874     0.0   12.3270
17640  17591.0   775.820    -38.9715  11.2853     0.0   12.3480
17650  17601.0   776.220    -38.9755  11.2814     0.0   12.3135
17660  17611.0   776.620    -38.9726  11.2842     0.0   12.2985
17670  17621.0   777.020    -38.9705  11.2864     0.0   12.3260
17680  17631.0   777.420    -38.9710  11.2858     0.0   12.3106
17690  17641.0   777.820    -38.9695  11.2873     0.0   12.2655
17700  17651.0   778.220    -38.9710  11.2859     0.0   12.2906
17710  17661.0   778.620    -38.9727  11.2842     0.0   12.2460
17720  17671.0   779.020    -38.9750  11.2819     0.0   12.2337
17730  17681.0   779.420    -38.9706  11.2863     0.0   12.2605
17740  17691.0   779.820    -38.9733  11.2836     0.0   12.2380
17750  17701.0   780.220    -38.9708  11.2860     0.0   12.2635
17760  17711.0   780.620    -38.9726  11.2842     0.0   12.2939
17770  17721.0   781.020    -38.9721  11.2848     0.0   12.2632
17780  17731.0   781.420    -38.9707  11.2862     0.0   12.2643
17790  17741.0   781.820    -38.9706  11.2862     0.0   12.2469
17800  17751.0   782.220    -38.9698  11.2870     0.0   12.2806
17810  17761.0   782.620    -38.9711  11.2858     0.0   12.2565
17820  17771.0   783.020    -38.9699  11.2870     0.0   12.3002
17830  17781.0   783.420    -38.9692  11.2877     0.0   12.3241
17840  17791.0   783.820    -38.9713  11.2856     0.0   12.2548
17850  17801.0   784.220    -38.9724  11.2845     0.0   12.2203
17860  17811.0   784.620    -38.9767  11.2802     0.0   12.2979
17870  17821.0   785.020    -38.9708  11.2860     0.0   12.2660
17880  17831.0   785.420    -38.9714  11.2854     0.0   12.2695
17890  17841.0   785.820    -38.9726  11.2843     0.0   12.2400
17900  17851.0   786.220    -38.9712  11.2857     0.0   12.2395
17910  17861.0   786.620    -38.9708  11.2861     0.0   12.3645
17920  17871.0   787.020    -38.9694  11.2875     0.0   12.4470
17930  17881.0   787.420    -38.9724  11.2845     0.0   12.4891
17940  17891.0   787.820    -38.9727  11.2842     0.0   12.4208
17950  17901.0   788.220    -38.9715  11.2853     0.0   12.4572
17960  17911.0   788.620    -38.9711  11.2857     0.0   12.4379
17970  17921.0   789.020    -38.9709  11.2860     0.0   12.4223
17980  17931.0   789.420    -38.9711  11.2857     0.0   12.4768
17990  17941.0   789.820    -38.9711  11.2857     0.0   12.4286
18000  17951.0   790.220    -38.9728  11.2840     0.0   12.4149
18010  17961.0   790.620    -38.9710  11.2858     0.0   12.4755
18020  17971.0   791.020    -38.9733  11.2836     0.0   12.4181
18030  17981.0   791.420    -38.9729  11.2840     0.0   12.4151
18040  17991.0   791.820    -38.9721  11.2848     0.0   12.4173
18050  18001.0   792.220    -38.9718  11.2851     0.0   12.4818
18060  18011.0   792.620    -38.9715  11.2854     0.0   12.4399
18070  18021.0   793.020    -38.9716  11.2853     0.0   12.4384
18080  18031.0   793.420    -38.9714  11.2855     0.0   12.4403
18090  18041.0   793.820    -38.9707  11.2861     0.0   12.3870
18100  18051.0   794.220    -38.9723  11.2845     0.0   12.4359
18110  18061.0   794.620    -38.9714  11.2854     0.0   12.4268
18120  18071.0   795.020    -38.9686  11.2882     0.0   12.4440
18130  18081.0   795.420    -38.9706  11.2862     0.0   12.4644
18140  18091.0   795.820    -38.9706  11.2863     0.0   12.4663
18150  18101.0   796.220    -38.9705  11.2863     0.0   12.4928
18160  18111.0   796.620    -38.9720  11.2848     0.0   12.4628
18170  18121.0   797.020    -38.9717  11.2851     0.0   12.4383
18180  18131.0   797.420    -38.9681  11.2888     0.0   12.3483
18190  18141.0   797.820    -38.9717  11.2852     0.0   12.2616
18200  18151.0   798.220    -38.9702  11.2867     0.0   12.1879
18210  18161.0   798.620    -38.9709  11.2859     0.0   12.2035
18220  18171.0   799.020    -38.9737  11.2832     0.0   12.2377
18230  18181.0   799.420    -38.9711  11.2857     0.0   12.2028
18240  18191.0   799.820    -38.9725  11.2844     0.0   12.2352
18250  18201.0   800.220    -38.9726  11.2843     0.0   12.1937
18260  18211.0   800.620    -38.9727  11.2842     0.0   12.2009
18270  18221.0   801.020    -38.9685  11.2884     0.0   12.2093
18280  18231.0   801.420    -38.9694  11.2875     0.0   12.1959
18290  18241.0   801.820    -38.9704  11.2865     0.0   12.2267
18300  18251.0   802.220    -38.9717  11.2852     0.0   12.2224
18310  18261.0   802.620    -38.9746  11.2823     0.0   12.2244
18320  18271.0   803.020    -38.9698  11.2871     0.0   12.2278
18330  18281.0   803.420    -38.9723  11.2845     0.0   12.2506
18340  18291.0   803.820    -38.9695  11.2874     0.0   12.2401
18350  18301.0   804.220    -38.9719  11.2849     0.0   12.2404
18360  18311.0   804.620    -38.9724  11.2844     0.0   12.1966
18370  18321.0   805.020    -38.9743  11.2825     0.0   12.1518
18380  18331.0   805.420    -38.9727  11.2842     0.0   12.1578
18390  18341.0   805.820    -38.9732  11.2837     0.0   12.1137
18400  18351.0   806.220    -38.9697  11.2872     0.0   12.1498
18410  18361.0   806.620    -38.9714  11.2855     0.0   12.1591
18420  18371.0   807.020    -38.9723  11.2846     0.0   12.1848
18430  18381.0   807.420    -38.9730  11.2839     0.0   12.1645
18440  18391.0   807.820    -38.9725  11.2844     0.0   12.1722
18450  18401.0   808.220    -38.9709  11.2860     0.0   12.1633
18460  18411.0   808.620    -38.9713  11.2856     0.0   12.1138
18470  18421.0   809.020    -38.9717  11.2852     0.0   12.1180
18480  18431.0   809.420    -38.9715  11.2854     0.0   12.0934
18490  18441.0   809.820    -38.9731  11.2837     0.0   12.1155
18500  18451.0   810.220    -38.9733  11.2836     0.0   12.0901
18510  18461.0   810.620    -38.9718  11.2850     0.0   12.1080
18520  18471.0   811.020    -38.9689  11.2880     0.0   12.1371
18530  18481.0   811.420    -38.9719  11.2849     0.0   12.0977
18540  18491.0   811.820    -38.9726  11.2843     0.0   12.0783
18550  18501.0   812.220    -38.9699  11.2870     0.0   12.0956
18560  18511.0   812.620    -38.9711  11.2858     0.0   12.1266
18570  18521.0   813.020    -38.9721  11.2848     0.0   12.0893
18580  18531.0   813.420    -38.9693  11.2876     0.0   12.1051
18590  18541.0   813.820    -38.9725  11.2844     0.0   12.1119
18600  18551.0   814.220    -38.9743  11.2826     0.0   12.0865
18610  18561.0   814.620    -38.9710  11.2858     0.0   12.0839
18620  18571.0   815.020    -38.9718  11.2851     0.0   12.1475
18630  18581.0   815.420    -38.9713  11.2856     0.0   12.1424
18640  18591.0   815.820    -38.9700  11.2868     0.0   12.1271
18650  18601.0   816.220    -38.9726  11.2843     0.0   12.1025
18660  18611.0   816.620    -38.9717  11.2852     0.0   12.1425
18670  18621.0   817.020    -38.9707  11.2862     0.0   12.1102
18680  18631.0   817.420    -38.9703  11.2865     0.0   12.1023
18690  18641.0   817.820    -38.9703  11.2865     0.0   12.1279
18700  18651.0   818.220    -38.9731  11.2838     0.0   12.1069
18716  18661.0   818.670    -38.9595  11.2974     0.0   12.3316
18726  18671.0   819.070    -38.9333  11.3236     0.0   12.7456
18736  18681.0   819.470    -38.9090  11.3478     0.0   13.1688
18746  18691.0   819.870    -38.8781  11.3787     0.0   13.5805
18756  18701.0   820.270    -38.8559  11.4010     0.0   13.9714
18766  18711.0   820.670    -38.8258  11.4311     0.0   14.3488
18776  18721.0   821.070    -38.8015  11.4554     0.0   14.6828
18786  18731.0   821.470    -38.7746  11.4823     0.0   15.0396
18796  18741.0   821.870    -38.7481  11.5088     0.0   15.3805
18806  18751.0   822.270    -38.7205  11.5364     0.0   15.6755
18816  18761.0   822.670    -38.6937  11.5632     0.0   15.9759
18826  18771.0   823.070    -38.6690  11.5879     0.0   16.2176
18836  18781.0   823.470    -38.6405  11.6163     0.0   16.4607
18846  18791.0   823.870    -38.6147  11.6421     0.0   16.6991
18856  18801.0   824.270    -38.5853  11.6715     0.0   16.8130
18866  18811.0   824.670    -38.5607  11.6962     0.0   16.9290
18876  18821.0   825.070    -38.5343  11.7225     0.0   17.1349
18886  18831.0   825.470    -38.5072  11.7497     0.0   17.3889
18896  18841.0   825.870    -38.4782  11.7786     0.0   17.6223
18906  18851.0   826.270    -38.4537  11.8032     0.0   17.8571
18916  18861.0   826.670    -38.4273  11.8296     0.0   18.0661
18926  18871.0   827.070    -38.4019  11.8549     0.0   18.2605
18936  18881.0   827.470    -38.3747  11.8821     0.0   18.4483
18946  18891.0   827.870    -38.3480  11.9089     0.0   18.6242
18956  18901.0   828.270    -38.3215  11.9354     0.0   18.8050
18966  18911.0   828.670    -38.2966  11.9603     0.0   18.9580
18976  18921.0   829.070    -38.2666  11.9903     0.0   19.0786
18986  18931.0   829.470    -38.2410  12.0159     0.0   19.1705
18996  18941.0   829.870    -38.2143  12.0425     0.0   19.3760
19006  18951.0   830.270    -38.1882  12.0687     0.0   19.4907
19016  18961.0   830.670    -38.1609  12.0959     0.0   19.7211
19026  18971.0   831.070    -38.1329  12.1240     0.0   19.8768
19036  18981.0   831.470    -38.1074  12.1494     0.0   20.0687
19046  18991.0   831.870    -38.0823  12.1746     0.0   20.1436
19056  19001.0   832.270    -38.0529  12.2040     0.0   20.3803
19066  19011.0   832.670    -38.0284  12.2284     0.0   20.5028
19076  19021.0   833.070    -38.0005  12.2563     0.0   20.6408
19086  19031.0   833.470    -37.9752  12.2817     0.0   20.8150
19096  19041.0   833.870    -37.9457  12.3111     0.0   20.9438
19106  19051.0   834.270    -37.9185  12.3383     0.0   21.0649
19116  19061.0   834.670    -37.8940  12.3629     0.0   21.2138
19126  19071.0   835.070    -37.8678  12.3890     0.0   21.3762
19136  19081.0   835.470    -37.8412  12.4156     0.0   21.5129
19146  19091.0   835.870    -37.8134  12.4435     0.0   21.6938
19156  19101.0   836.270    -37.7888  12.4680     0.0   21.7802
19166  19111.0   836.670    -37.7606  12.4963     0.0   21.9207
19176  19121.0   837.070    -37.7328  12.5240     0.0   22.0760
19186  19131.0   837.470    -37.7083  12.5486     0.0   22.2010
19196  19141.0   837.870    -37.6801  12.5767     0.0   22.4235
19206  19151.0   838.270    -37.6556  12.6013     0.0   22.5378
19216  19161.0   838.670    -37.6280  12.6288     0.0   22.6842
19226  19171.0   839.070    -37.5984  12.6584     0.0   22.8683
19236  19181.0   839.470    -37.5755  12.6814     0.0   22.9872
19246  19191.0   839.870    -37.5460  12.7109     0.0   23.1205
19256  19201.0   840.270    -37.5191  12.7378     0.0   23.2560
19266  19211.0   840.670    -37.4940  12.7629     0.0   23.4487
19276  19221.0   841.070    -37.4674  12.7895     0.0   23.6158
19286  19231.0   841.470    -37.4404  12.8164     0.0   23.6911
19296  19241.0   841.870    -37.4160  12.8408     0.0   23.8387
19306  19251.0   842.270    -37.3866  12.8702     0.0   23.9524
19316  19261.0   842.670    -37.3581  12.8987     0.0   24.0733
19326  19271.0   843.070    -37.3339  12.9229     0.0   24.2599
19336  19281.0   843.470    -37.3085  12.9484     0.0   24.3852
19346  19291.0   843.870    -37.2816  12.9753     0.0   24.5927
19356  19301.0   844.270    -37.2538  13.0031     0.0   24.6563
19366  19311.0   844.670    -37.2265  13.0304     0.0   24.8860
19376  19321.0   845.070    -37.1985  13.0583     0.0   25.0000
19386  19331.0   845.470    -37.1734  13.0834     0.0   25.2070
19397  19341.0   845.870    -37.1512  13.1057     0.0   25.2442
19407  19351.0   846.270    -37.1377  13.1192     0.0   25.2230
19417  19361.0   846.670    -37.1250  13.1318     0.0   25.2706
19427  19371.0   847.070    -37.1118  13.1450     0.0   25.2518
19437  19381.0   847.470    -37.0999  13.1570     0.0   25.3145
19447  19391.0   847.870    -37.0856  13.1713     0.0   25.3590
19457  19401.0   848.270    -37.0726  13.1842     0.0   25.4187
19467  19411.0   848.670    -37.0562  13.2006     0.0   25.5206
19477  19421.0   849.070    -37.0445  13.2124     0.0   25.5540
19487  19431.0   849.470    -37.0299  13.2270     0.0   25.6193
19497  19441.0   849.870    -37.0179  13.2390     0.0   25.6974
19507  19451.0   850.270    -37.0048  13.2521     0.0   25.7461
19517  19461.0   850.670    -36.9896  13.2673     0.0   25.8005
19527  19471.0   851.070    -36.9781  13.2788     0.0   25.8520
19537  19481.0   851.470    -36.9652  13.2917     0.0   25.9861
19547  19491.0   851.870    -36.9496  13.3072     0.0   26.0798
19557  19501.0   852.270    -36.9392  13.3176     0.0   26.1288
19567  19511.0   852.670    -36.9256  13.3313     0.0   26.2063
19577  19521.0   853.070    -36.9142  13.3427     0.0   26.3009
19587  19531.0   853.470    -36.8993  13.3575     0.0   26.3745
19597  19541.0   853.870    -36.8865  13.3704     0.0   26.4205
19607  19551.0   854.270    -36.8735  13.3834     0.0   26.4943
19617  19561.0   854.670    -36.8602  13.3966     0.0   26.5595
19627  19571.0   855.070    -36.8434  13.4135     0.0   26.7120
19637  19581.0   855.470    -36.8297  13.4271     0.0   26.7869
19647  19591.0   855.870    -36.8179  13.4389     0.0   26.8667
19657  19601.0   856.270    -36.8017  13.4552     0.0   26.9793
19667  19611.0   856.670    -36.7907  13.4662     0.0   27.0327
19677  19621.0   857.070    -36.7782  13.4787     0.0   27.1367
19687  19631.0   857.470    -36.7642  13.4927     0.0   27.2088
19697  19641.0   857.870    -36.7528  13.5041     0.0   27.3102
19707  19651.0   858.270    -36.7379  13.5190     0.0   27.3946
19717  19661.0   858.670    -36.7259  13.5310     0.0   27.4639
19727  19671.0   859.070    -36.7116  13.5453     0.0   27.5412
19737  19681.0   859.470    -36.6980  13.5588     0.0   27.6308
19747  19691.0   859.870    -36.6855  13.5713     0.0   27.6933
19757  19701.0   860.270    -36.6710  13.5859     0.0   27.8110
19767  19711.0   860.670    -36.6574  13.5995     0.0   27.8335
19777  19721.0   861.070    -36.6469  13.6099     0.0   27.8875
19787  19731.0   861.470    -36.6298  13.6270     0.0   28.0167
19797  19741.0   861.870    -36.6184  13.6384     0.0   28.0846
19807  19751.0   862.270    -36.6046  13.6522     0.0   28.1927
19817  19761.0   862.670    -36.5890  13.6678     0.0   28.3245
19827  19771.0   863.070    -36.5794  13.6775     0.0   28.3335
19837  19781.0   863.470    -36.5634  13.6934     0.0   28.4488
19847  19791.0   863.870    -36.5503  13.7066     0.0   28.4986
19857  19801.0   864.270    -36.5385  13.7183     0.0   28.5825
19867  19811.0   864.670    -36.5244  13.7325     0.0   28.6898
19877  19821.0   865.070    -36.5116  13.7452     0.0   28.7877
19887  19831.0   865.470    -36.4977  13.7591     0.0   28.8807
19897  19841.0   865.870    -36.4856  13.7712     0.0   28.9891
19907  19851.0   866.270    -36.4714  13.7854     0.0   29.0483
19917  19861.0   866.670    -36.4596  13.7973     0.0   29.1303
19927  19871.0   867.070    -36.4462  13.8107     0.0   29.2137
19937  19881.0   867.470    -36.4313  13.8255     0.0   29.2927
19947  19891.0   867.870    -36.4187  13.8382     0.0   29.3636
19957  19901.0   868.270    -36.4046  13.8523     0.0   29.4526
19967  19911.0   868.670    -36.3923  13.8645     0.0   29.5626
19977  19921.0   869.070    -36.3792  13.8777     0.0   29.5982
19987  19931.0   869.470    -36.3640  13.8928     0.0   29.7203
19997  19941.0   869.870    -36.3514  13.9055     0.0   29.8215
20007  19951.0   870.270    -36.3396  13.9172     0.0   29.8629
20017  19961.0   870.670    -36.3260  13.9308     0.0   29.9949
20027  19971.0   871.070    -36.3099  13.9469     0.0   30.0651
20037  19981.0   871.470    -36.2985  13.9583     0.0   30.1898
20047  19991.0   871.870    -36.2877  13.9692     0.0   30.2624
20057  20001.0   872.270    -36.2722  13.9847     0.0   30.3599
20067  20011.0   872.670    -36.2597  13.9972     0.0   30.4123
20077  20021.0   873.070    -36.2437  14.0131     0.0   30.5070
20087  20031.0   873.470    -36.2323  14.0245     0.0   30.5734
20097  20041.0   873.870    -36.2174  14.0395     0.0   30.6825
20107  20051.0   874.270    -36.2028  14.0541     0.0   30.7736
20117  20061.0   874.670    -36.1908  14.0660     0.0   30.8498
20127  20071.0   875.070    -36.1781  14.0788     0.0   30.9614
20137  20081.0   875.470    -36.1654  14.0915     0.0   31.0103
20147  20091.0   875.870    -36.1511  14.1057     0.0   31.1102
20157  20101.0   876.270    -36.1391  14.1177     0.0   31.1656
20167  20111.0   876.670    -36.1260  14.1308     0.0   31.2868
20177  20121.0   877.070    -36.1106  14.1463     0.0   31.3935
20187  20131.0   877.470    -36.0973  14.1596     0.0   31.4747
20197  20141.0   877.870    -36.0845  14.1724     0.0   31.5280
20207  20151.0   878.270    -36.0714  14.1854     0.0   31.6365
20217  20161.0   878.670    -36.0586  14.1982     0.0   31.7125
20227  20171.0   879.070    -36.0486  14.2082     0.0   31.8208
20237  20181.0   879.470    -36.0301  14.2268     0.0   31.9047
20247  20191.0   879.870    -36.0187  14.2382     0.0   31.9957
20257  20201.0   880.270    -36.0049  14.2520     0.0   32.1004
20267  20211.0   880.670    -35.9926  14.2642     0.0   32.2088
20277  20221.0   881.070    -35.9797  14.2772     0.0   32.2439
20287  20231.0   881.470    -35.9659  14.2910     0.0   32.3511
20297  20241.0   881.870    -35.9517  14.3051     0.0   32.4389
20307  20251.0   882.270    -35.9377  14.3192     0.0   32.5579
20317  20261.0   882.670    -35.9254  14.3315     0.0   32.6246
20327  20271.0   883.070    -35.9101  14.3467     0.0   32.7283
20337  20281.0   883.470    -35.8976  14.3593     0.0   32.7843
20347  20291.0   883.870    -35.8862  14.3707     0.0   32.9224
20357  20301.0   884.270    -35.8717  14.3851     0.0   32.9486
20367  20311.0   884.670    -35.8578  14.3991     0.0   33.0511
20377  20321.0   885.070    -35.8439  14.4130     0.0   33.1872
20387  20331.0   885.470    -35.8306  14.4263     0.0   33.2144
20397  20341.0   885.870    -35.8187  14.4382     0.0   33.3283
20407  20351.0   886.270    -35.8061  14.4508     0.0   33.4284
20417  20361.0   886.670    -35.7930  14.4638     0.0   33.5019
20427  20371.0   887.070    -35.7785  14.4784     0.0   33.5904
20437  20381.0   887.470    -35.7653  14.4915     0.0   33.6690
20447  20391.0   887.870    -35.7528  14.5041     0.0   33.7437
20457  20401.0   888.270    -35.7393  14.5176     0.0   33.8240
20467  20411.0   888.670    -35.7252  14.5316     0.0   33.9418
20477  20421.0   889.070    -35.7130  14.5439     0.0   34.0524
20487  20431.0   889.470    -35.6991  14.5577     0.0   34.1338
20497  20441.0   889.870    -35.6861  14.5708     0.0   34.2640
20507  20451.0   890.270    -35.6702  14.5867     0.0   34.3201
20517  20461.0   890.670    -35.6584  14.5984     0.0   34.3932
20527  20471.0   891.070    -35.6430  14.6139     0.0   34.5197
20537  20481.0   891.470    -35.6323  14.6246     0.0   34.6445
20547  20491.0   891.870    -35.6209  14.6360     0.0   34.6547
20557  20501.0   892.270    -35.6058  14.6511     0.0   34.7439
20567  20511.0   892.670    -35.5948  14.6621     0.0   34.8273
20577  20521.0   893.070    -35.5776  14.6793     0.0   34.9071
20587  20531.0   893.470    -35.5623  14.6945     0.0   34.9959
20597  20541.0   893.870    -35.5522  14.7047     0.0   35.1024
20607  20551.0   894.270    -35.5394  14.7174     0.0   35.1481
20617  20561.0   894.670    -35.5229  14.7340     0.0   35.2990
20627  20571.0   895.070    -35.5135  14.7433     0.0   35.3018
20637  20581.0   895.470    -35.4965  14.7604     0.0   35.4110
20647  20591.0   895.870    -35.4846  14.7722     0.0   35.4571
20657  20601.0   896.270    -35.4721  14.7848     0.0   35.5544
20667  20611.0   896.670    -35.4589  14.7979     0.0   35.6241
20677  20621.0   897.070    -35.4469  14.8100     0.0   35.6893
20687  20631.0   897.470    -35.4313  14.8256     0.0   35.7886
20697  20641.0   897.870    -35.4165  14.8404     0.0   35.9192
20707  20651.0   898.270    -35.4043  14.8525     0.0   35.9529
20717  20661.0   898.670    -35.3922  14.8646     0.0   36.0226
20727  20671.0   899.070    -35.3768  14.8800     0.0   36.0948
20737  20681.0   899.470    -35.3673  14.8895     0.0   36.1690
20747  20691.0   899.870    -35.3514  14.9055     0.0   36.3073
20757  20701.0   900.270    -35.3388  14.9181     0.0   36.3967
20767  20711.0   900.670    -35.3264  14.9305     0.0   36.4986
20777  20721.0   901.070    -35.3152  14.9416     0.0   36.6020
20787  20731.0   901.470    -35.2989  14.9580     0.0   36.7044
20797  20741.0   901.870    -35.2830  14.9739     0.0   36.8280
20807  20751.0   902.270    -35.2727  14.9841     0.0   36.9024
20817  20761.0   902.670    -35.2603  14.9965     0.0   36.9714
20827  20771.0   903.070    -35.2452  15.0116     0.0   36.9828
20837  20781.0   903.470    -35.2334  15.0234     0.0   37.0334
20847  20791.0   903.870    -35.2182  15.0386     0.0   37.1288
20857  20801.0   904.270    -35.2054  15.0514     0.0   37.2859
20867  20811.0   904.670    -35.1935  15.0634     0.0   37.3543
20877  20821.0   905.070    -35.1794  15.0775     0.0   37.4266
20887  20831.0   905.470    -35.1646  15.0923     0.0   37.4608
20897  20841.0   905.870    -35.1525  15.1043     0.0   37.5447
20907  20851.0   906.270    -35.1380  15.1188     0.0   37.6310
20917  20861.0   906.670    -35.1236  15.1333     0.0   37.7672
20927  20871.0   907.070    -35.1110  15.1459     0.0   37.8794
20937  20881.0   907.470    -35.0973  15.1595     0.0   37.9995
20947  20891.0   907.870    -35.0859  15.1710     0.0   38.1081
20957  20901.0   908.270    -35.0718  15.1851     0.0   38.1618
20967  20911.0   908.670    -35.0596  15.1972     0.0   38.2266
20977  20921.0   909.070    -35.0465  15.2104     0.0   38.4144
20987  20931.0   909.470    -35.0304  15.2265     0.0   38.4089
20997  20941.0   909.870    -35.0174  15.2395     0.0   38.5561
21007  20951.0   910.270    -35.0047  15.2522     0.0   38.6194
21017  20961.0   910.670    -34.9924  15.2645     0.0   38.6834
21027  20971.0   911.070    -34.9793  15.2775     0.0   38.7371
21037  20981.0   911.470    -34.9649  15.2920     0.0   38.8216
21047  20991.0   911.870    -34.9513  15.3056     0.0   38.9322
21057  21001.0   912.270    -34.9387  15.3181     0.0   38.9931
21067  21011.0   912.670    -34.9225  15.3344     0.0   39.0803
21077  21021.0   913.070    -34.9102  15.3467     0.0   39.2194
21087  21031.0   913.470    -34.8990  15.3578     0.0   39.2820
21097  21041.0   913.870    -34.8847  15.3722     0.0   39.2768
21107  21051.0   914.270    -34.8733  15.3835     0.0   39.3673
21117  21061.0   914.670    -34.8597  15.3971     0.0   39.4825
21127  21071.0   915.070    -34.8440  15.4129     0.0   39.5850
21137  21081.0   915.470    -34.8319  15.4250     0.0   39.6628
21147  21091.0   915.870    -34.8176  15.4392     0.0   39.7641
21157  21101.0   916.270    -34.8055  15.4513     0.0   39.8338
21167  21111.0   916.670    -34.7908  15.4661     0.0   39.9451
21177  21121.0   917.070    -34.7775  15.4794     0.0   39.9908
21187  21131.0   917.470    -34.7653  15.4915     0.0   39.9995
21197  21141.0   917.870    -34.7518  15.5051     0.0   40.1527
21207  21151.0   918.270    -34.7365  15.5203     0.0   40.2164
21217  21161.0   918.670    -34.7264  15.5305     0.0   40.2978
21227  21171.0   919.070    -34.7112  15.5456     0.0   40.4171
21237  21181.0   919.470    -34.6981  15.5588     0.0   40.4913
21247  21191.0   919.870    -34.6852  15.5717     0.0   40.5637
21257  21201.0   920.270    -34.6752  15.5816     0.0   40.6584
21267  21211.0   920.670    -34.6588  15.5980     0.0   40.7921
21277  21221.0   921.070    -34.6459  15.6110     0.0   40.8521
21287  21231.0   921.470    -34.6320  15.6249     0.0   40.8959
21297  21241.0   921.870    -34.6180  15.6389     0.0   41.0177
21307  21251.0   922.270    -34.6048  15.6521     0.0   41.1608
21317  21261.0   922.670    -34.5906  15.6663     0.0   41.1848
21327  21271.0   923.070    -34.5779  15.6790     0.0   41.2544
21337  21281.0   923.470    -34.5639  15.6929     0.0   41.3469
21347  21291.0   923.870    -34.5505  15.7064     0.0   41.4656
21357  21301.0   924.270    -34.5390  15.7179     0.0   41.5165
21367  21311.0   924.670    -34.5260  15.7309     0.0   41.5931
21377  21321.0   925.070    -34.5137  15.7432     0.0   41.6939
21387  21331.0   925.470    -34.4988  15.7581     0.0   41.8065
21397  21341.0   925.870    -34.4844  15.7725     0.0   41.9091
21407  21351.0   926.270    -34.4728  15.7841     0.0   41.9345
21417  21361.0   926.670    -34.4588  15.7981     0.0   42.0485
21427  21371.0   927.070    -34.4461  15.8108     0.0   42.1365
21437  21381.0   927.470    -34.4330  15.8239     0.0   42.2415
21447  21391.0   927.870    -34.4204  15.8365     0.0   42.3097
21457  21401.0   928.270    -34.4066  15.8502     0.0   42.4038
21467  21411.0   928.670    -34.3922  15.8646     0.0   42.4980
21477  21421.0   929.070    -34.3789  15.8780     0.0   42.5206
21487  21431.0   929.470    -34.3656  15.8913     0.0   42.5760
21497  21441.0   929.870    -34.3523  15.9046     0.0   42.6511
21507  21451.0   930.270    -34.3401  15.9167     0.0   42.7360
21517  21461.0   930.670    -34.3253  15.9315     0.0   42.8492
21527  21471.0   931.070    -34.3105  15.9463     0.0   42.8812
21537  21481.0   931.470    -34.2975  15.9594     0.0   42.9817
21547  21491.0   931.870    -34.2862  15.9707     0.0   43.0468
21557  21501.0   932.270    -34.2737  15.9832     0.0   43.1009
21567  21511.0   932.670    -34.2589  15.9980     0.0   43.2091
21577  21521.0   933.070    -34.2464  16.0104     0.0   43.3199
21587  21531.0   933.470    -34.2336  16.0232     0.0   43.3629
21597  21541.0   933.870    -34.2209  16.0360     0.0   43.4497
21607  21551.0   934.270    -34.2039  16.0530     0.0   43.5202
21617  21561.0   934.670    -34.1917  16.0651     0.0   43.6015
21627  21571.0   935.070    -34.1793  16.0776     0.0   43.6613
21637  21581.0   935.470    -34.1655  16.0913     0.0   43.7280
21647  21591.0   935.870    -34.1535  16.1033     0.0   43.8331
21657  21601.0   936.270    -34.1392  16.1177     0.0   43.8184
21667  21611.0   936.670    -34.1246  16.1322     0.0   43.9156
21677  21621.0   937.070    -34.1112  16.1456     0.0   44.0321
21687  21631.0   937.470    -34.0999  16.1570     0.0   44.1516
21697  21641.0   937.870    -34.0870  16.1698     0.0   44.1666
21707  21651.0   938.270    -34.0706  16.1862     0.0   44.2516
21717  21661.0   938.670    -34.0601  16.1968     0.0   44.3144
21727  21671.0   939.070    -34.0428  16.2141     0.0   44.4357
21737  21681.0   939.470    -34.0334  16.2235     0.0   44.5195
21747  21691.0   939.870    -34.0188  16.2381     0.0   44.5623
21757  21701.0   940.270    -34.0062  16.2507     0.0   44.6273
21767  21711.0   940.670    -33.9928  16.2641     0.0   44.7153
21777  21721.0   941.070    -33.9817  16.2752     0.0   44.8284
21787  21731.0   941.470    -33.9651  16.2917     0.0   44.9366
21797  21741.0   941.870    -33.9534  16.3035     0.0   44.9959
21807  21751.0   942.270    -33.9385  16.3184     0.0   45.1028
21817  21761.0   942.670    -33.9257  16.3311     0.0   45.1537
21827  21771.0   943.070    -33.9115  16.3453     0.0   45.2463
21837  21781.0   943.470    -33.9009  16.3560     0.0   45.2790
21847  21791.0   943.870    -33.8861  16.3708     0.0   45.3832
21857  21801.0   944.270    -33.8703  16.3866     0.0   45.4928
21867  21811.0   944.670    -33.8580  16.3988     0.0   45.5686
21877  21821.0   945.070    -33.8447  16.4122     0.0   45.6311
21887  21831.0   945.470    -33.8331  16.4237     0.0   45.7009
21897  21841.0   945.870    -33.8189  16.4380     0.0   45.7857
21907  21851.0   946.270    -33.8063  16.4506     0.0   45.8788
21917  21861.0   946.670    -33.7935  16.4634     0.0   45.9510
21927  21871.0   947.070    -33.7788  16.4781     0.0   46.0541
21937  21881.0   947.470    -33.7652  16.4917     0.0   46.1165
21947  21891.0   947.870    -33.7512  16.5056     0.0   46.2527
21957  21901.0   948.270    -33.7396  16.5172     0.0   46.2662
21967  21911.0   948.670    -33.7248  16.5321     0.0   46.3952
21977  21921.0   949.070    -33.7135  16.5434     0.0   46.4509
21987  21931.0   949.470    -33.6998  16.5571     0.0   46.5243
21997  21941.0   949.870    -33.6861  16.5708     0.0   46.6321
22007  21951.0   950.270    -33.6727  16.5842     0.0   46.7099
22017  21961.0   950.670    -33.6598  16.5970     0.0   46.7698
22027  21971.0   951.070    -33.6456  16.6113     0.0   46.8242
22037  21981.0   951.470    -33.6350  16.6218     0.0   46.9166
22047  21991.0   951.870    -33.6183  16.6386     0.0   46.9817
22057  22001.0   952.270    -33.6047  16.6522     0.0   47.0851
22067  22011.0   952.670    -33.5911  16.6658     0.0   47.1457
22077  22021.0   953.070    -33.5794  16.6774     0.0   47.1797
22087  22031.0   953.470    -33.5657  16.6912     0.0   47.2911
22097  22041.0   953.870    -33.5510  16.7058     0.0   47.3610
22107  22051.0   954.270    -33.5389  16.7179     0.0   47.4202
22117  22061.0   954.670    -33.5255  16.7314     0.0   47.5267
22127  22071.0   955.070    -33.5144  16.7424     0.0   47.5596
22137  22081.0   955.470    -33.4965  16.7604     0.0   47.6178
22147  22091.0   955.870    -33.4857  16.7711     0.0   47.6641
22157  22101.0   956.270    -33.4725  16.7844     0.0   47.7167
22167  22111.0   956.670    -33.4580  16.7988     0.0   47.7308
22177  22121.0   957.070    -33.4446  16.8123     0.0   47.6980
22187  22131.0   957.470    -33.4329  16.8240     0.0   47.6147
22197  22141.0   957.870    -33.4206  16.8362     0.0   47.3232
22207  22151.0   958.270    -33.4093  16.8476     0.0   46.9128
22217  22161.0   958.670    -33.3934  16.8634     0.0   46.9320
22227  22171.0   959.070    -33.3810  16.8758     0.0   47.0668
22237  22181.0   959.470    -33.3653  16.8916     0.0   47.1376
22247  22191.0   959.870    -33.3510  16.9059     0.0   47.2377
22257  22201.0   960.270    -33.3381  16.9187     0.0   47.3669
22267  22211.0   960.670    -33.3249  16.9320     0.0   47.4518
22277  22221.0   961.070    -33.3128  16.9441     0.0   47.5488
22287  22231.0   961.470    -33.2976  16.9592     0.0   47.6812
22297  22241.0   961.870    -33.2850  16.9718     0.0   47.7802
22307  22251.0   962.270    -33.2737  16.9832     0.0   47.9033
22317  22261.0   962.670    -33.2591  16.9978     0.0   48.0191
22327  22271.0   963.070    -33.2449  17.0120     0.0   48.0915
22337  22281.0   963.470    -33.2301  17.0268     0.0   48.1814
22347  22291.0   963.870    -33.2193  17.0376     0.0   48.2721
22357  22301.0   964.270    -33.2050  17.0519     0.0   48.3772
22367  22311.0   964.670    -33.1895  17.0673     0.0   48.4771
22377  22321.0   965.070    -33.1780  17.0789     0.0   48.5472
22387  22331.0   965.470    -33.1661  17.0907     0.0   48.6234
22397  22341.0   965.870    -33.1536  17.1032     0.0   48.6553
22407  22351.0   966.270    -33.1374  17.1195     0.0   48.7282
22417  22361.0   966.670    -33.1267  17.1302     0.0   48.7519
22427  22371.0   967.070    -33.1115  17.1454     0.0   48.7961
22437  22381.0   967.470    -33.0984  17.1584     0.0   48.7585
22447  22391.0   967.870    -33.0841  17.1728     0.0   48.4980
22457  22401.0   968.270    -33.0706  17.1862     0.0   48.2704
22467  22411.0   968.670    -33.0593  17.1975     0.0   48.2251
22477  22421.0   969.070    -33.0459  17.2109     0.0   48.3124
22487  22431.0   969.470    -33.0316  17.2253     0.0   48.3265
22497  22441.0   969.870    -33.0180  17.2388     0.0   48.3518
22507  22451.0   970.270    -33.0072  17.2496     0.0   48.3428
22517  22461.0   970.670    -32.9930  17.2639     0.0   48.4282
22527  22471.0   971.070    -32.9794  17.2775     0.0   48.5095
22537  22481.0   971.470    -32.9655  17.2914     0.0   48.5504
22547  22491.0   971.870    -32.9520  17.3049     0.0   48.6541
22557  22501.0   972.270    -32.9388  17.3180     0.0   48.7581
22567  22511.0   972.670    -32.9259  17.3310     0.0   48.8343
22577  22521.0   973.070    -32.9101  17.3467     0.0   48.9243
22587  22531.0   973.470    -32.8980  17.3589     0.0   49.0163
22597  22541.0   973.870    -32.8865  17.3704     0.0   49.1214
22607  22551.0   974.270    -32.8706  17.3863     0.0   49.1742
22617  22561.0   974.670    -32.8581  17.3988     0.0   49.2819
22627  22571.0   975.070    -32.8458  17.4111     0.0   49.3476
22637  22581.0   975.470    -32.8325  17.4244     0.0   49.4238
22647  22591.0   975.870    -32.8172  17.4397     0.0   49.4792
22657  22601.0   976.270    -32.8056  17.4512     0.0   49.4785
22667  22611.0   976.670    -32.7933  17.4636     0.0   49.4123
22677  22621.0   977.070    -32.7779  17.4790     0.0   49.2632
22687  22631.0   977.470    -32.7644  17.4924     0.0   49.2010
22697  22641.0   977.870    -32.7522  17.5047     0.0   49.2152
22707  22651.0   978.270    -32.7383  17.5185     0.0   49.2884
22717  22661.0   978.670    -32.7239  17.5329     0.0   49.3460
22727  22671.0   979.070    -32.7116  17.5453     0.0   49.4220
22737  22681.0   979.470    -32.6984  17.5585     0.0   49.4839
22747  22691.0   979.870    -32.6851  17.5717     0.0   49.5415
22757  22701.0   980.270    -32.6719  17.5849     0.0   49.5969
22767  22711.0   980.670    -32.6590  17.5979     0.0   49.6333
22777  22721.0   981.070    -32.6451  17.6117     0.0   49.6737
22787  22731.0   981.470    -32.6316  17.6252     0.0   49.7454
22797  22741.0   981.870    -32.6184  17.6384     0.0   49.7942
22807  22751.0   982.270    -32.6052  17.6517     0.0   49.8447
22817  22761.0   982.670    -32.5907  17.6662     0.0   49.9087
22827  22771.0   983.070    -32.5774  17.6794     0.0   49.9672
22837  22781.0   983.470    -32.5647  17.6922     0.0   50.0236
22847  22791.0   983.870    -32.5512  17.7057     0.0   50.0851
22857  22801.0   984.270    -32.5388  17.7181     0.0   50.1573
22867  22811.0   984.670    -32.5247  17.7321     0.0   50.1844
22877  22821.0   985.070    -32.5100  17.7469     0.0   50.2700
22887  22831.0   985.470    -32.4984  17.7584     0.0   50.2848
22897  22841.0   985.870    -32.4845  17.7723     0.0   50.3487
22907  22851.0   986.270    -32.4721  17.7847     0.0   50.3591
22917  22861.0   986.670    -32.4568  17.8000     0.0   50.3980
22927  22871.0   987.070    -32.4464  17.8105     0.0   50.4587
22937  22881.0   987.470    -32.4322  17.8246     0.0   50.4856
22947  22891.0   987.870    -32.4187  17.8382     0.0   50.5471
22957  22901.0   988.270    -32.4054  17.8514     0.0   50.6217
22967  22911.0   988.670    -32.3912  17.8657     0.0   50.7133
22977  22921.0   989.070    -32.3797  17.8772     0.0   50.7360
22987  22931.0   989.470    -32.3656  17.8913     0.0   50.8298
22997  22941.0   989.870    -32.3517  17.9052     0.0   50.9187
23007  22951.0   990.270    -32.3384  17.9185     0.0   50.9896
23017  22961.0   990.670    -32.3267  17.9302     0.0   51.0539
23027  22971.0   991.070    -32.3120  17.9449     0.0   51.1153
23037  22981.0   991.470    -32.2983  17.9586     0.0   51.2254
23047  22991.0   991.870    -32.2859  17.9709     0.0   51.2928
23057  23001.0   992.270    -32.2726  17.9843     0.0   51.3754
23067  23011.0   992.670    -32.2594  17.9975     0.0   51.4389
23077  23021.0   993.070    -32.2463  18.0106     0.0   51.4910
23087  23031.0   993.470    -32.2313  18.0255     0.0   51.5893
23097  23041.0   993.870    -32.2187  18.0382     0.0   51.6300
23107  23051.0   994.270    -32.2063  18.0506     0.0   51.6726
23117  23061.0   994.670    -32.1933  18.0635     0.0   51.7147
23127  23071.0   995.070    -32.1779  18.0790     0.0   51.8000
23137  23081.0   995.470    -32.1654  18.0915     0.0   51.8240
23147  23091.0   995.870    -32.1534  18.1035     0.0   51.8395
23157  23101.0   996.270    -32.1378  18.1190     0.0   51.8781
23167  23111.0   996.670    -32.1249  18.1320     0.0   51.8681
23177  23121.0   997.070    -32.1125  18.1443     0.0   51.9150
23187  23131.0   997.470    -32.0981  18.1587     0.0   51.9548
23197  23141.0   997.870    -32.0849  18.1720     0.0   51.9728
23207  23151.0   998.270    -32.0716  18.1852     0.0   52.0471
23217  23161.0   998.670    -32.0584  18.1984     0.0   52.0453
23227  23171.0   999.070    -32.0457  18.2111     0.0   52.1493
23237  23181.0   999.470    -32.0331  18.2238     0.0   52.2064
23247  23191.0   999.870    -32.0189  18.2379     0.0   52.2661
23257  23201.0  1000.270    -32.0066  18.2502     0.0   52.3031
23267  23211.0  1000.670    -31.9924  18.2645     0.0   52.3931
23277  23221.0  1001.070    -31.9782  18.2787     0.0   52.4296
23287  23231.0  1001.470    -31.9635  18.2933     0.0   52.5283
23297  23241.0  1001.870    -31.9524  18.3045     0.0   52.5419
23307  23251.0  1002.270    -31.9389  18.3180     0.0   52.6144
23317  23261.0  1002.670    -31.9264  18.3305     0.0   52.6387
23327  23271.0  1003.070    -31.9121  18.3448     0.0   52.7022
23337  23281.0  1003.470    -31.9004  18.3564     0.0   52.7385
23347  23291.0  1003.870    -31.8848  18.3721     0.0   52.8141
23357  23301.0  1004.270    -31.8722  18.3847     0.0   52.8649
23367  23311.0  1004.670    -31.8599  18.3970     0.0   52.9211
23377  23321.0  1005.070    -31.8454  18.4115     0.0   52.9615
23387  23331.0  1005.470    -31.8306  18.4263     0.0   53.0427
23397  23341.0  1005.870    -31.8188  18.4381     0.0   53.0844
23407  23351.0  1006.270    -31.8054  18.4515     0.0   53.1380
23417  23361.0  1006.670    -31.7918  18.4651     0.0   53.1740
23427  23371.0  1007.070    -31.7793  18.4775     0.0   53.2218
23437  23381.0  1007.470    -31.7661  18.4907     0.0   53.2707
23447  23391.0  1007.870    -31.7513  18.5055     0.0   53.3335
23457  23401.0  1008.270    -31.7394  18.5175     0.0   53.3687
23467  23411.0  1008.670    -31.7248  18.5321     0.0   53.4477
23477  23421.0  1009.070    -31.7121  18.5448     0.0   53.4477
23487  23431.0  1009.470    -31.7000  18.5568     0.0   53.5340
23497  23441.0  1009.870    -31.6863  18.5706     0.0   53.5633
23507  23451.0  1010.270    -31.6723  18.5845     0.0   53.5887
23517  23461.0  1010.670    -31.6584  18.5984     0.0   53.6021
23527  23471.0  1011.070    -31.6457  18.6111     0.0   53.6394
23537  23481.0  1011.470    -31.6335  18.6234     0.0   53.6516
23547  23491.0  1011.870    -31.6176  18.6393     0.0   53.6826
23557  23501.0  1012.270    -31.6054  18.6515     0.0   53.7122
23567  23511.0  1012.670    -31.5932  18.6637     0.0   53.7706
23577  23521.0  1013.070    -31.5787  18.6782     0.0   53.8170
23587  23531.0  1013.470    -31.5669  18.6900     0.0   53.8695
23597  23541.0  1013.870    -31.5524  18.7045     0.0   53.9163
23607  23551.0  1014.270    -31.5392  18.7177     0.0   53.9717
23617  23561.0  1014.670    -31.5267  18.7302     0.0   54.0468
23627  23571.0  1015.070    -31.5126  18.7442     0.0   54.0878
23637  23581.0  1015.470    -31.5004  18.7565     0.0   54.1364
23647  23591.0  1015.870    -31.4855  18.7713     0.0   54.1926
23657  23601.0  1016.270    -31.4724  18.7845     0.0   54.2381
23667  23611.0  1016.670    -31.4577  18.7992     0.0   54.2941
23677  23621.0  1017.070    -31.4432  18.8137     0.0   54.3485
23687  23631.0  1017.470    -31.4332  18.8237     0.0   54.3880
23697  23641.0  1017.870    -31.4186  18.8382     0.0   54.4475
23707  23651.0  1018.270    -31.4053  18.8515     0.0   54.4697
23717  23661.0  1018.670    -31.3937  18.8631     0.0   54.5618
23727  23671.0  1019.070    -31.3782  18.8787     0.0   54.5702
23737  23681.0  1019.470    -31.3653  18.8916     0.0   54.6365
23747  23691.0  1019.870    -31.3514  18.9054     0.0   54.7008
23757  23701.0  1020.270    -31.3395  18.9173     0.0   54.7259
23767  23711.0  1020.670    -31.3248  18.9320     0.0   54.7513
23777  23721.0  1021.070    -31.3138  18.9430     0.0   54.7544
23787  23731.0  1021.470    -31.2993  18.9576     0.0   54.8106
23797  23741.0  1021.870    -31.2867  18.9702     0.0   54.8212
23807  23751.0  1022.270    -31.2727  18.9842     0.0   54.8836
23817  23761.0  1022.670    -31.2592  18.9977     0.0   54.9034
23827  23771.0  1023.070    -31.2461  19.0108     0.0   54.9253
23837  23781.0  1023.470    -31.2334  19.0235     0.0   54.9720
23847  23791.0  1023.870    -31.2185  19.0384     0.0   55.0094
23857  23801.0  1024.270    -31.2057  19.0512     0.0   55.0371
23867  23811.0  1024.670    -31.1924  19.0645     0.0   55.1062
23877  23821.0  1025.070    -31.1777  19.0792     0.0   55.1427
23887  23831.0  1025.470    -31.1666  19.0903     0.0   55.1579
23897  23841.0  1025.870    -31.1520  19.1048     0.0   55.1884
23907  23851.0  1026.270    -31.1377  19.1192     0.0   55.2130
23917  23861.0  1026.670    -31.1259  19.1309     0.0   55.2833
23927  23871.0  1027.070    -31.1115  19.1454     0.0   55.3315
23937  23881.0  1027.470    -31.0988  19.1581     0.0   55.3858
23947  23891.0  1027.870    -31.0887  19.1682     0.0   55.4323
23957  23901.0  1028.270    -31.0718  19.1851     0.0   55.5188
23967  23911.0  1028.670    -31.0600  19.1968     0.0   55.5275
23977  23921.0  1029.070    -31.0447  19.2122     0.0   55.6046
23987  23931.0  1029.470    -31.0337  19.2232     0.0   55.6339
23997  23941.0  1029.870    -31.0178  19.2391     0.0   55.6855
24007  23951.0  1030.270    -31.0074  19.2495     0.0   55.7190
24017  23961.0  1030.670    -30.9913  19.2655     0.0   55.7235
24027  23971.0  1031.070    -30.9796  19.2772     0.0   55.7171
24037  23981.0  1031.470    -30.9666  19.2902     0.0   55.7439
24047  23991.0  1031.870    -30.9533  19.3035     0.0   55.7671
24057  24001.0  1032.270    -30.9376  19.3193     0.0   55.7502
24067  24011.0  1032.670    -30.9274  19.3295     0.0   55.7706
24077  24021.0  1033.070    -30.9121  19.3447     0.0   55.7691
24087  24031.0  1033.470    -30.8997  19.3572     0.0   55.7853
24097  24041.0  1033.870    -30.8858  19.3711     0.0   55.8220
24107  24051.0  1034.270    -30.8737  19.3832     0.0   55.8198
24117  24061.0  1034.670    -30.8578  19.3990     0.0   55.8566
24127  24071.0  1035.070    -30.8468  19.4101     0.0   55.8808
24137  24081.0  1035.470    -30.8316  19.4252     0.0   55.9323
24147  24091.0  1035.870    -30.8197  19.4371     0.0   55.9310
24157  24101.0  1036.270    -30.8057  19.4512     0.0   55.9989
24167  24111.0  1036.670    -30.7934  19.4634     0.0   56.0472
24177  24121.0  1037.070    -30.7795  19.4773     0.0   56.0662
24187  24131.0  1037.470    -30.7665  19.4904     0.0   56.1073
24197  24141.0  1037.870    -30.7527  19.5041     0.0   56.1378
24207  24151.0  1038.270    -30.7388  19.5181     0.0   56.1785
24217  24161.0  1038.670    -30.7239  19.5330     0.0   56.2001
24227  24171.0  1039.070    -30.7141  19.5428     0.0   56.2005
24237  24181.0  1039.470    -30.6999  19.5570     0.0   56.2386
24247  24191.0  1039.870    -30.6856  19.5712     0.0   56.2734
24257  24201.0  1040.270    -30.6721  19.5848     0.0   56.3095
24267  24211.0  1040.670    -30.6584  19.5985     0.0   56.3330
24277  24221.0  1041.070    -30.6454  19.6114     0.0   56.3426
24287  24231.0  1041.470    -30.6343  19.6226     0.0   56.3736
24297  24241.0  1041.870    -30.6186  19.6383     0.0   56.3912
24307  24251.0  1042.270    -30.6072  19.6497     0.0   56.3905
24317  24261.0  1042.670    -30.5916  19.6652     0.0   56.4332
24327  24271.0  1043.070    -30.5797  19.6772     0.0   56.4301
24337  24281.0  1043.470    -30.5654  19.6915     0.0   56.4663
24347  24291.0  1043.870    -30.5531  19.7038     0.0   56.4282
24357  24301.0  1044.270    -30.5398  19.7171     0.0   56.4546
24367  24311.0  1044.670    -30.5246  19.7323     0.0   56.4452
24377  24321.0  1045.070    -30.5124  19.7445     0.0   56.4504
24387  24331.0  1045.470    -30.4991  19.7578     0.0   56.4983
24397  24341.0  1045.870    -30.4847  19.7721     0.0   56.4951
24407  24351.0  1046.270    -30.4738  19.7830     0.0   56.5134
24417  24361.0  1046.670    -30.4603  19.7966     0.0   56.5252
24427  24371.0  1047.070    -30.4457  19.8111     0.0   56.5422
24437  24381.0  1047.470    -30.4325  19.8244     0.0   56.5635
24447  24391.0  1047.870    -30.4183  19.8385     0.0   56.5872
24457  24401.0  1048.270    -30.4068  19.8500     0.0   56.5845
24467  24411.0  1048.670    -30.3949  19.8620     0.0   56.5668
24477  24421.0  1049.070    -30.3804  19.8765     0.0   56.5869
24487  24431.0  1049.470    -30.3663  19.8906     0.0   56.5966
24497  24441.0  1049.870    -30.3531  19.9038     0.0   56.5877
24507  24451.0  1050.270    -30.3392  19.9177     0.0   56.6031
24517  24461.0  1050.670    -30.3269  19.9300     0.0   56.5958
24527  24471.0  1051.070    -30.3140  19.9429     0.0   56.6171