           Num  Time(s)  PosAbs(mm)  Pos(mm)  Pos(%)  Load(kN)
0          1.0    0.005    -16.6375  -0.0023     0.0    0.0877
10        11.0    2.005    -16.5731   0.0620     0.0    0.1091
20        21.0    4.005    -16.5051   0.1301     0.0    0.1194
30        31.0    6.005    -16.4378   0.1974     0.0    0.1353
40        41.0    8.005    -16.3718   0.2634     0.0    0.1593
50        51.0   10.005    -16.3054   0.3298     0.0    0.1815
60        61.0   12.005    -16.2383   0.3969     0.0    0.2033
70        71.0   14.005    -16.1708   0.4644     0.0    0.2259
80        81.0   16.005    -16.1055   0.5297     0.0    0.2581
90        91.0   18.005    -16.0379   0.5973     0.0    0.2919
100      101.0   20.005    -15.9718   0.6634     0.0    0.3291
110      111.0   22.005    -15.9057   0.7295     0.0    0.3720
120      121.0   24.005    -15.8382   0.7970     0.0    0.4166
130      131.0   26.005    -15.7712   0.8640     0.0    0.4636
140      141.0   28.005    -15.7052   0.9299     0.0    0.5133
150      151.0   30.005    -15.6380   0.9972     0.0    0.5684
160      161.0   32.005    -15.5719   1.0633     0.0    0.6238
170      171.0   34.005    -15.5055   1.1297     0.0    0.6822
180      181.0   36.005    -15.4382   1.1970     0.0    0.7423
190      191.0   38.005    -15.3708   1.2644     0.0    0.8047
200      201.0   40.005    -15.3051   1.3301     0.0    0.8722
210      211.0   42.005    -15.2381   1.3971     0.0    0.9357
220      221.0   44.005    -15.1722   1.4629     0.0    1.0054
230      231.0   46.005    -15.1053   1.5299     0.0    1.0760
240      241.0   48.005    -15.0385   1.5967     0.0    1.1531
250      251.0   50.005    -14.9713   1.6639     0.0    1.2247
260      261.0   52.005    -14.9051   1.7301     0.0    1.3012
270      271.0   54.005    -14.8386   1.7966     0.0    1.3769
280      281.0   56.005    -14.7720   1.8632     0.0    1.4613
290      291.0   58.005    -14.7054   1.9298     0.0    1.5424
300      301.0   60.005    -14.6384   1.9968     0.0    1.6210
310      311.0   62.005    -14.5711   2.0640     0.0    1.7009
321      321.0   64.005    -14.4696   2.1656     0.0    1.8598
331      331.0   66.005    -14.3371   2.2981     0.0    2.0425
341      341.0   68.005    -14.2025   2.4327     0.0    2.2168
351      351.0   70.005    -14.0695   2.5657     0.0    2.3921
361      361.0   72.005    -13.9368   2.6984     0.0    2.5664
371      371.0   74.005    -13.8034   2.8318     0.0    2.7368
381      381.0   76.005    -13.6696   2.9656     0.0    2.9096
391      391.0   78.005    -13.5362   3.0990     0.0    3.0580
401      401.0   80.005    -13.4035   3.2317     0.0    3.1102
411      411.0   82.005    -13.2700   3.3652     0.0    3.2117
421      421.0   84.005    -13.1360   3.4992     0.0    3.2462
431      431.0   86.005    -13.0031   3.6321     0.0    3.2811
441      441.0   88.005    -12.8693   3.7659     0.0    3.3133
451      451.0   90.005    -12.7360   3.8992     0.0    3.3188
461      461.0   92.005    -12.6030   4.0322     0.0    3.3234
471      471.0   94.005    -12.4695   4.1657     0.0    3.3272
481      481.0   96.005    -12.3369   4.2983     0.0    3.3300
491      491.0   98.005    -12.2024   4.4328     0.0    3.3356
501      501.0  100.005    -12.0695   4.5657     0.0    3.3670
511      511.0  102.005    -11.9368   4.6984     0.0    3.3928
521      521.0  104.005    -11.8032   4.8320     0.0    3.4693
531      531.0  106.005    -11.6696   4.9656     0.0    3.5113
541      541.0  108.005    -11.5369   5.0983     0.0    3.5468
551      551.0  110.005    -11.4031   5.2321     0.0    3.5890
561      561.0  112.005    -11.2695   5.3657     0.0    3.6263
571      571.0  114.005    -11.1367   5.4985     0.0    3.6591
581      581.0  116.005    -11.0033   5.6319     0.0    3.6869
591      591.0  118.005    -10.8696   5.7656     0.0    3.7579
601      601.0  120.005    -10.7366   5.8985     0.0    3.8540
611      611.0  122.005    -10.6028   6.0324     0.0    3.9299
621      621.0  124.005    -10.4694   6.1658     0.0    3.9542
631      631.0  126.005    -10.3365   6.2987     0.0    3.9951
641      641.0  128.005    -10.2030   6.4321     0.0    4.1890
651      651.0  130.005    -10.0697   6.5654     0.0    4.4413
661      661.0  132.005     -9.9362   6.6990     0.0    4.6377
671      671.0  134.005     -9.8029   6.8323     0.0    4.8180
681      681.0  136.005     -9.6701   6.9651     0.0    4.9866
691      691.0  138.005     -9.5364   7.0988     0.0    5.1524
701      701.0  140.005     -9.4032   7.2320     0.0    5.3247
711      711.0  142.005     -9.2696   7.3656     0.0    5.4982
721      721.0  144.005     -9.1365   7.4987     0.0    5.6420
731      731.0  146.005     -9.0031   7.6321     0.0    5.7966
741      741.0  148.005     -8.8700   7.7652     0.0    5.9888
751      751.0  150.005     -8.7365   7.8987     0.0    6.1569
761      761.0  152.005     -8.6033   8.0318     0.0    6.3236
771      771.0  154.005     -8.4692   8.1660     0.0    6.5015
781      781.0  156.005     -8.3368   8.2984     0.0    6.7042
791      791.0  158.005     -8.2030   8.4322     0.0    6.9154
801      801.0  160.005     -8.0695   8.5656     0.0    7.1322
811      811.0  162.005     -7.9367   8.6984     0.0    7.3536
821      821.0  164.005     -7.8034   8.8318     0.0    7.5794
831      831.0  166.005     -7.6700   8.9651     0.0    7.8683
841      841.0  168.005     -7.5369   9.0983     0.0    8.1376
851      851.0  170.005     -7.4032   9.2320     0.0    8.4096
861      861.0  172.005     -7.2696   9.3656     0.0    8.6837
871      871.0  174.005     -7.1367   9.4985     0.0    8.9706
881      881.0  176.005     -7.0032   9.6320     0.0    9.2659
891      891.0  178.005     -6.8700   9.7651     0.0    9.5633
901      901.0  180.005     -6.7364   9.8987     0.0    9.8471
911      911.0  182.005     -6.6029  10.0322     0.0   10.2072
921      921.0  184.005     -6.4695  10.1657     0.0   10.5709
931      931.0  186.005     -6.3368  10.2984     0.0   10.9399
941      941.0  188.005     -6.2034  10.4318     0.0   11.3276
951      951.0  190.005     -6.0700  10.5652     0.0   11.7212
961      961.0  192.005     -5.9367  10.6985     0.0   12.1371
971      971.0  194.005     -5.8032  10.8319     0.0   12.5712
981      981.0  196.005     -5.6702  10.9650     0.0   13.0266
991      991.0  198.005     -5.5369  11.0982     0.0   13.4954
1001    1001.0  200.005     -5.4037  11.2315     0.0   13.9916
1011    1011.0  202.005     -5.2701  11.3651     0.0   14.5067
1021    1021.0  203.879     -5.1455  11.4897     0.0   15.0019
1037    1031.0  204.305     -5.1682  11.4669     0.0   14.4732
1047    1041.0  204.705     -5.1684  11.4668     0.0   14.3496
1057    1051.0  205.105     -5.1686  11.4666     0.0   14.2552
1067    1061.0  205.505     -5.1681  11.4670     0.0   14.1706
1077    1071.0  205.905     -5.1682  11.4670     0.0   14.0959
1087    1081.0  206.305     -5.1679  11.4672     0.0   14.0272
1097    1091.0  206.705     -5.1683  11.4668     0.0   13.9597
1107    1101.0  207.105     -5.1682  11.4670     0.0   13.9042
1117    1111.0  207.505     -5.1683  11.4669     0.0   13.8486
1127    1121.0  207.905     -5.1684  11.4668     0.0   13.8028
1137    1131.0  208.305     -5.1680  11.4671     0.0   13.7591
1147    1141.0  208.705     -5.1683  11.4669     0.0   13.7169
1157    1151.0  209.105     -5.1680  11.4672     0.0   13.6790
1167    1161.0  209.505     -5.1685  11.4667     0.0   13.6425
1177    1171.0  209.905     -5.1683  11.4669     0.0   13.6053
1187    1181.0  210.305     -5.1682  11.4670     0.0   13.5746
1197    1191.0  210.705     -5.1686  11.4666     0.0   13.5393
1207    1201.0  211.105     -5.1684  11.4668     0.0   13.5088
1217    1211.0  211.505     -5.1681  11.4670     0.0   13.4784
1228    1221.0  211.905     -5.1681  11.4671     0.0   13.4548
1238    1231.0  212.305     -5.1679  11.4672     0.0   13.4284
1248    1241.0  212.705     -5.1680  11.4672     0.0   13.4035
1258    1251.0  213.105     -5.1682  11.4670     0.0   13.3769
1268    1261.0  213.505     -5.1680  11.4671     0.0   13.3549
1278    1271.0  213.905     -5.1681  11.4671     0.0   13.3348
1288    1281.0  214.305     -5.1680  11.4672     0.0   13.3145
1298    1291.0  214.705     -5.1679  11.4673     0.0   13.2864
1308    1301.0  215.105     -5.1681  11.4671     0.0   13.2735
1318    1311.0  215.505     -5.1683  11.4669     0.0   13.2508
1328    1321.0  215.905     -5.1685  11.4667     0.0   13.2320
1338    1331.0  216.305     -5.1683  11.4668     0.0   13.2144
1348    1341.0  216.705     -5.1681  11.4670     0.0   13.1979
1358    1351.0  217.105     -5.1679  11.4673     0.0   13.1933
1368    1361.0  217.505     -5.1682  11.4670     0.0   13.1673
1378    1371.0  217.905     -5.1680  11.4672     0.0   13.1529
1388    1381.0  218.305     -5.1681  11.4671     0.0   13.1494
1398    1391.0  218.705     -5.1681  11.4671     0.0   13.1252
1408    1401.0  219.105     -5.1680  11.4672     0.0   13.1073
1418    1411.0  219.505     -5.1680  11.4671     0.0   13.0924
1428    1421.0  219.905     -5.1678  11.4674     0.0   13.0926
1438    1431.0  220.305     -5.1678  11.4674     0.0   13.0657
1448    1441.0  220.705     -5.1680  11.4672     0.0   13.0602
1458    1451.0  221.105     -5.1680  11.4671     0.0   13.0876
1468    1461.0  221.505     -5.1681  11.4671     0.0   13.0497
1478    1471.0  221.905     -5.1681  11.4671     0.0   12.9924
1488    1481.0  222.305     -5.1681  11.4671     0.0   13.0024
1498    1491.0  222.705     -5.1680  11.4672     0.0   12.9933
1508    1501.0  223.105     -5.1683  11.4669     0.0   12.9741
1518    1511.0  223.505     -5.1681  11.4671     0.0   12.9627
1528    1521.0  223.905     -5.1679  11.4673     0.0   12.9611
1538    1531.0  224.305     -5.1680  11.4672     0.0   12.9408
1548    1541.0  224.705     -5.1676  11.4676     0.0   12.9327
1558    1551.0  225.105     -5.1684  11.4668     0.0   12.9244
1568    1561.0  225.505     -5.1681  11.4670     0.0   12.9084
1578    1571.0  225.905     -5.1681  11.4671     0.0   12.8971
1588    1581.0  226.305     -5.1679  11.4673     0.0   12.8803
1598    1591.0  226.705     -5.1679  11.4673     0.0   12.8740
1608    1601.0  227.105     -5.1678  11.4674     0.0   12.8706
1618    1611.0  227.505     -5.1678  11.4674     0.0   12.8613
1628    1621.0  227.905     -5.1681  11.4671     0.0   12.8575
1638    1631.0  228.305     -5.1681  11.4671     0.0   12.8450
1648    1641.0  228.705     -5.1677  11.4675     0.0   12.8303
1658    1651.0  229.105     -5.1683  11.4669     0.0   12.8262
1668    1661.0  229.505     -5.1680  11.4672     0.0   12.8242
1678    1671.0  229.905     -5.1681  11.4671     0.0   12.8059
1688    1681.0  230.305     -5.1684  11.4668     0.0   12.8049
1698    1691.0  230.705     -5.1682  11.4669     0.0   12.7941
1708    1701.0  231.105     -5.1679  11.4673     0.0   12.7787
1718    1711.0  231.505     -5.1683  11.4669     0.0   12.7678
1728    1721.0  231.905     -5.1677  11.4674     0.0   12.7827
1738    1731.0  232.305     -5.1676  11.4675     0.0   12.7635
1748    1741.0  232.705     -5.1676  11.4675     0.0   12.7050
1758    1751.0  233.105     -5.1680  11.4672     0.0   12.7119
1768    1761.0  233.505     -5.1683  11.4669     0.0   12.6851
1778    1771.0  233.905     -5.1680  11.4672     0.0   12.7062
1788    1781.0  234.305     -5.1682  11.4670     0.0   12.6790
1798    1791.0  234.705     -5.1677  11.4675     0.0   12.6797
1808    1801.0  235.105     -5.1682  11.4670     0.0   12.6866
1818    1811.0  235.505     -5.1679  11.4673     0.0   12.6609
1828    1821.0  235.905     -5.1679  11.4673     0.0   12.6636
1838    1831.0  236.305     -5.1676  11.4676     0.0   12.6595
1848    1841.0  236.705     -5.1680  11.4672     0.0   12.6376
1858    1851.0  237.105     -5.1681  11.4671     0.0   12.6397
1868    1861.0  237.505     -5.1686  11.4666     0.0   12.6393
1878    1871.0  237.905     -5.1679  11.4673     0.0   12.6216
1888    1881.0  238.305     -5.1681  11.4671     0.0   12.6225
1898    1891.0  238.705     -5.1679  11.4673     0.0   12.6151
1908    1901.0  239.105     -5.1681  11.4671     0.0   12.6050
1918    1911.0  239.505     -5.1680  11.4672     0.0   12.6035
1928    1921.0  239.905     -5.1680  11.4672     0.0   12.5937
1938    1931.0  240.305     -5.1682  11.4670     0.0   12.6022
1948    1941.0  240.705     -5.1679  11.4673     0.0   12.5882
1958    1951.0  241.105     -5.1680  11.4672     0.0   12.5776
1968    1961.0  241.505     -5.1682  11.4670     0.0   12.5816
1978    1971.0  241.905     -5.1682  11.4670     0.0   12.5640
1988    1981.0  242.305     -5.1684  11.4668     0.0   12.5592
1998    1991.0  242.705     -5.1680  11.4672     0.0   12.5526
2008    2001.0  243.105     -5.1683  11.4669     0.0   12.5364
2018    2011.0  243.505     -5.1680  11.4672     0.0   12.5346
2028    2021.0  243.905     -5.1677  11.4674     0.0   12.5328
2038    2031.0  244.305     -5.1684  11.4668     0.0   12.5156
2048    2041.0  244.705     -5.1678  11.4674     0.0   12.5209
2058    2051.0  245.105     -5.1677  11.4674     0.0   12.5084
2068    2061.0  245.505     -5.1683  11.4669     0.0   12.5031
2078    2071.0  245.905     -5.1683  11.4668     0.0   12.5139
2088    2081.0  246.305     -5.1680  11.4672     0.0   12.5024
2098    2091.0  246.705     -5.1682  11.4670     0.0   12.4931
2108    2101.0  247.105     -5.1679  11.4673     0.0   12.4934
2118    2111.0  247.505     -5.1682  11.4670     0.0   12.4790
2128    2121.0  247.905     -5.1680  11.4672     0.0   12.4768
2138    2131.0  248.305     -5.1678  11.4674     0.0   12.4733
2148    2141.0  248.705     -5.1680  11.4672     0.0   12.4619
2158    2151.0  249.105     -5.1682  11.4670     0.0   12.4633
2168    2161.0  249.505     -5.1680  11.4671     0.0   12.4588
2178    2171.0  249.905     -5.1676  11.4676     0.0   12.4468
2188    2181.0  250.305     -5.1681  11.4671     0.0   12.4379
2198    2191.0  250.705     -5.1686  11.4666     0.0   12.4308
2208    2201.0  251.105     -5.1679  11.4673     0.0   12.4307
2218    2211.0  251.505     -5.1679  11.4673     0.0   12.4278
2228    2221.0  251.905     -5.1678  11.4674     0.0   12.4161
2238    2231.0  252.305     -5.1683  11.4669     0.0   12.4260
2248    2241.0  252.705     -5.1683  11.4669     0.0   12.4167
2258    2251.0  253.105     -5.1681  11.4671     0.0   12.4061
2268    2261.0  253.505     -5.1680  11.4672     0.0   12.4091
2278    2271.0  253.905     -5.1679  11.4672     0.0   12.3951
2288    2281.0  254.305     -5.1683  11.4669     0.0   12.3911
2298    2291.0  254.705     -5.1683  11.4668     0.0   12.3960
2308    2301.0  255.105     -5.1677  11.4675     0.0   12.3880
2318    2311.0  255.505     -5.1684  11.4668     0.0   12.3791
2328    2321.0  255.905     -5.1679  11.4673     0.0   12.3805
2338    2331.0  256.305     -5.1681  11.4671     0.0   12.3723
2348    2341.0  256.705     -5.1678  11.4674     0.0   12.3715
2358    2351.0  257.105     -5.1683  11.4669     0.0   12.3650
2368    2361.0  257.505     -5.1683  11.4669     0.0   12.3591
2378    2371.0  257.905     -5.1677  11.4674     0.0   12.3583
2388    2381.0  258.305     -5.1680  11.4672     0.0   12.3532
2398    2391.0  258.705     -5.1680  11.4672     0.0   12.3501
2408    2401.0  259.105     -5.1679  11.4673     0.0   12.3426
2418    2411.0  259.505     -5.1683  11.4669     0.0   12.3367
2428    2421.0  259.905     -5.1683  11.4669     0.0   12.3378
2438    2431.0  260.305     -5.1678  11.4674     0.0   12.3529
2448    2441.0  260.705     -5.1680  11.4672     0.0   12.3310
2458    2451.0  261.105     -5.1680  11.4672     0.0   12.3406
2468    2461.0  261.505     -5.1677  11.4675     0.0   12.3917
2478    2471.0  261.905     -5.1678  11.4674     0.0   12.2943
2488    2481.0  262.305     -5.1681  11.4671     0.0   12.3069
2498    2491.0  262.705     -5.1678  11.4674     0.0   12.2741
2508    2501.0  263.105     -5.1678  11.4674     0.0   12.2842
2518    2511.0  263.505     -5.1678  11.4674     0.0   12.2762
2528    2521.0  263.905     -5.1683  11.4669     0.0   12.2535
2538    2531.0  264.305     -5.1680  11.4672     0.0   12.2708
2548    2541.0  264.705     -5.1679  11.4673     0.0   12.2853
2558    2551.0  265.105     -5.1682  11.4670     0.0   12.2736
2568    2561.0  265.505     -5.1680  11.4672     0.0   12.2739
2578    2571.0  265.905     -5.1681  11.4671     0.0   12.2728
2588    2581.0  266.305     -5.1683  11.4669     0.0   12.2720
2598    2591.0  266.705     -5.1682  11.4670     0.0   12.2684
2608    2601.0  267.105     -5.1681  11.4670     0.0   12.2647
2618    2611.0  267.505     -5.1683  11.4669     0.0   12.2599
2628    2621.0  267.905     -5.1679  11.4672     0.0   12.2738
2638    2631.0  268.305     -5.1679  11.4672     0.0   12.2477
2648    2641.0  268.705     -5.1681  11.4671     0.0   12.2467
2658    2651.0  269.105     -5.1680  11.4672     0.0   12.2607
2668    2661.0  269.505     -5.1682  11.4670     0.0   12.2605
2678    2671.0  269.905     -5.1685  11.4667     0.0   12.2784
2688    2681.0  270.305     -5.1677  11.4675     0.0   12.2732
2698    2691.0  270.705     -5.1683  11.4669     0.0   12.2538
2708    2701.0  271.105     -5.1681  11.4671     0.0   12.2494
2718    2711.0  271.505     -5.1681  11.4671     0.0   12.2395
2728    2721.0  271.905     -5.1682  11.4670     0.0   12.2391
2738    2731.0  272.305     -5.1679  11.4673     0.0   12.2368
2748    2741.0  272.705     -5.1684  11.4668     0.0   12.2341
2758    2751.0  273.105     -5.1682  11.4670     0.0   12.2323
2768    2761.0  273.505     -5.1685  11.4667     0.0   12.2295
2778    2771.0  273.905     -5.1677  11.4675     0.0   12.2246
2788    2781.0  274.305     -5.1680  11.4672     0.0   12.2422
2798    2791.0  274.705     -5.1677  11.4675     0.0   12.2189
2808    2801.0  275.105     -5.1679  11.4672     0.0   12.1918
2818    2811.0  275.505     -5.1680  11.4672     0.0   12.2027
2828    2821.0  275.905     -5.1678  11.4674     0.0   12.1980
2838    2831.0  276.305     -5.1680  11.4672     0.0   12.1894
2848    2841.0  276.705     -5.1682  11.4670     0.0   12.1976
2858    2851.0  277.105     -5.1681  11.4671     0.0   12.1881
2868    2861.0  277.505     -5.1680  11.4671     0.0   12.1813
2878    2871.0  277.905     -5.1679  11.4673     0.0   12.1896
2888    2881.0  278.305     -5.1678  11.4674     0.0   12.1743
2898    2891.0  278.705     -5.1681  11.4671     0.0   12.1709
2908    2901.0  279.105     -5.1678  11.4674     0.0   12.1787
2918    2911.0  279.505     -5.1682  11.4670     0.0   12.1754
2928    2921.0  279.905     -5.1681  11.4671     0.0   12.2049
2938    2931.0  280.305     -5.1681  11.4671     0.0   12.1828
2948    2941.0  280.705     -5.1684  11.4668     0.0   12.1644
2958    2951.0  281.105     -5.1681  11.4670     0.0   12.1713
2968    2961.0  281.505     -5.1680  11.4672     0.0   12.1534
2978    2971.0  281.905     -5.1682  11.4669     0.0   12.1513
2988    2981.0  282.305     -5.1681  11.4671     0.0   12.1578
2998    2991.0  282.705     -5.1681  11.4671     0.0   12.1558
3008    3001.0  283.105     -5.1680  11.4672     0.0   12.1381
3018    3011.0  283.505     -5.1680  11.4671     0.0   12.1448
3028    3021.0  283.905     -5.1678  11.4674     0.0   12.1390
3038    3031.0  284.305     -5.1680  11.4672     0.0   12.1256
3048    3041.0  284.705     -5.1679  11.4673     0.0   12.1381
3058    3051.0  285.105     -5.1682  11.4670     0.0   12.1288
3068    3061.0  285.505     -5.1683  11.4669     0.0   12.1222
3078    3071.0  285.905     -5.1678  11.4674     0.0   12.1336
3088    3081.0  286.305     -5.1680  11.4672     0.0   12.1177
3098    3091.0  286.705     -5.1678  11.4673     0.0   12.1114
3108    3101.0  287.105     -5.1681  11.4671     0.0   12.1151
3118    3111.0  287.505     -5.1679  11.4673     0.0   12.1033
3128    3121.0  287.905     -5.1679  11.4673     0.0   12.1063
3138    3131.0  288.305     -5.1680  11.4672     0.0   12.1091
3148    3141.0  288.705     -5.1681  11.4671     0.0   12.0947
3158    3151.0  289.105     -5.1677  11.4674     0.0   12.1021
3168    3161.0  289.505     -5.1678  11.4674     0.0   12.0984
3178    3171.0  289.905     -5.1683  11.4669     0.0   12.0889
3188    3181.0  290.305     -5.1681  11.4671     0.0   12.0963
3198    3191.0  290.705     -5.1677  11.4675     0.0   12.0878
3215    3201.0  291.180     -5.1569  11.4783     0.0   12.2795
3225    3211.0  291.580     -5.1437  11.4915     0.0   12.4810
3235    3221.0  291.980     -5.1306  11.5045     0.0   12.6698
3245    3231.0  292.380     -5.1171  11.5181     0.0   12.8681
3255    3241.0  292.780     -5.1038  11.5314     0.0   13.0390
3265    3251.0  293.180     -5.0907  11.5445     0.0   13.2113
3275    3261.0  293.580     -5.0773  11.5579     0.0   13.3843
3285    3271.0  293.980     -5.0637  11.5715     0.0   13.5419
3295    3281.0  294.380     -5.0505  11.5846     0.0   13.7069
3305    3291.0  294.780     -5.0370  11.5981     0.0   13.8548
3315    3301.0  295.180     -5.0241  11.6110     0.0   14.0058
3325    3311.0  295.580     -5.0105  11.6247     0.0   14.1558
3335    3321.0  295.980     -4.9974  11.6378     0.0   14.3004
3345    3331.0  296.380     -4.9840  11.6512     0.0   14.4399
3355    3341.0  296.780     -4.9705  11.6647     0.0   14.5724
3365    3351.0  297.180     -4.9575  11.6777     0.0   14.7014
3375    3361.0  297.580     -4.9441  11.6911     0.0   14.8245
3385    3371.0  297.980     -4.9305  11.7046     0.0   14.9434
3395    3381.0  298.380     -4.9174  11.7178     0.0   15.0561
3405    3391.0  298.780     -4.9040  11.7312     0.0   15.1680
3415    3401.0  299.180     -4.8909  11.7443     0.0   15.2760
3425    3411.0  299.580     -4.8771  11.7581     0.0   15.3806
3435    3421.0  299.980     -4.8638  11.7714     0.0   15.4789
3445    3431.0  300.380     -4.8509  11.7843     0.0   15.5743
3455    3441.0  300.780     -4.8374  11.7978     0.0   15.6747
3465    3451.0  301.180     -4.8243  11.8109     0.0   15.7676
3475    3461.0  301.580     -4.8109  11.8243     0.0   15.8570
3485    3471.0  301.980     -4.7977  11.8374     0.0   15.9504
3495    3481.0  302.380     -4.7840  11.8512     0.0   16.0423
3505    3491.0  302.780     -4.7708  11.8644     0.0   16.1239
3515    3501.0  303.180     -4.7572  11.8780     0.0   16.2117
3525    3511.0  303.580     -4.7439  11.8912     0.0   16.2989
3535    3521.0  303.980     -4.7307  11.9045     0.0   16.3815
3545    3531.0  304.380     -4.7174  11.9178     0.0   16.4631
3555    3541.0  304.780     -4.7044  11.9308     0.0   16.5452
3565    3551.0  305.180     -4.6907  11.9444     0.0   16.6272
3575    3561.0  305.580     -4.6775  11.9577     0.0   16.7052
3585    3571.0  305.980     -4.6642  11.9710     0.0   16.7845
3595    3581.0  306.380     -4.6506  11.9846     0.0   16.8585
3605    3591.0  306.780     -4.6381  11.9971     0.0   16.9343
3615    3601.0  307.180     -4.6240  12.0112     0.0   17.0136
3625    3611.0  307.580     -4.6107  12.0245     0.0   17.0892
3635    3621.0  307.980     -4.5974  12.0377     0.0   17.1592
3645    3631.0  308.380     -4.5843  12.0509     0.0   17.2383
3655    3641.0  308.780     -4.5705  12.0646     0.0   17.3069
3665    3651.0  309.180     -4.5576  12.0776     0.0   17.3794
3675    3661.0  309.580     -4.5442  12.0910     0.0   17.4510
3685    3671.0  309.980     -4.5311  12.1041     0.0   17.5238
3695    3681.0  310.380     -4.5175  12.1176     0.0   17.5923
3705    3691.0  310.780     -4.5042  12.1310     0.0   17.6593
3715    3701.0  311.180     -4.4906  12.1446     0.0   17.7326
3725    3711.0  311.580     -4.4775  12.1577     0.0   17.7980
3735    3721.0  311.980     -4.4645  12.1707     0.0   17.8696
3745    3731.0  312.380     -4.4509  12.1843     0.0   17.9370
3755    3741.0  312.780     -4.4376  12.1976     0.0   18.0045
3765    3751.0  313.180     -4.4244  12.2108     0.0   18.0705
3775    3761.0  313.580     -4.4109  12.2243     0.0   18.1380
3785    3771.0  313.980     -4.3975  12.2377     0.0   18.2057
3795    3781.0  314.380     -4.3842  12.2510     0.0   18.2714
3805    3791.0  314.780     -4.3709  12.2643     0.0   18.3392
3815    3801.0  315.180     -4.3579  12.2773     0.0   18.4061
3825    3811.0  315.580     -4.3442  12.2910     0.0   18.4729
3835    3821.0  315.980     -4.3309  12.3043     0.0   18.5389
3845    3831.0  316.380     -4.3174  12.3177     0.0   18.6122
3855    3841.0  316.780     -4.3044  12.3308     0.0   18.6747
3865    3851.0  317.180     -4.2909  12.3443     0.0   18.7427
3875    3861.0  317.580     -4.2775  12.3577     0.0   18.8130
3885    3871.0  317.980     -4.2642  12.3710     0.0   18.8779
3895    3881.0  318.380     -4.2511  12.3840     0.0   18.9433
3905    3891.0  318.780     -4.2378  12.3974     0.0   19.0129
3915    3901.0  319.180     -4.2243  12.4109     0.0   19.0851
3925    3911.0  319.580     -4.2105  12.4247     0.0   19.1491
3935    3921.0  319.980     -4.1977  12.4375     0.0   19.2198
3945    3931.0  320.380     -4.1844  12.4508     0.0   19.2885
3955    3941.0  320.780     -4.1709  12.4643     0.0   19.3547
3965    3951.0  321.180     -4.1578  12.4774     0.0   19.4260
3975    3961.0  321.580     -4.1441  12.4910     0.0   19.4897
3985    3971.0  321.980     -4.1312  12.5040     0.0   19.5610
3995    3981.0  322.380     -4.1179  12.5173     0.0   19.6303
4005    3991.0  322.780     -4.1049  12.5303     0.0   19.7010
4015    4001.0  323.180     -4.0908  12.5444     0.0   19.7704
4025    4011.0  323.580     -4.0777  12.5575     0.0   19.8364
4035    4021.0  323.980     -4.0644  12.5708     0.0   19.9049
4045    4031.0  324.380     -4.0511  12.5841     0.0   19.9749
4061    4041.0  324.780     -4.0700  12.5651     0.0   19.4729
4071    4051.0  325.180     -4.0700  12.5652     0.0   19.4076
4081    4061.0  325.580     -4.0699  12.5653     0.0   19.3310
4091    4071.0  325.980     -4.0700  12.5652     0.0   19.2656
4101    4081.0  326.380     -4.0697  12.5655     0.0   19.2018
4111    4091.0  326.780     -4.0699  12.5653     0.0   19.1432
4121    4101.0  327.180     -4.0700  12.5651     0.0   19.0915
4131    4111.0  327.580     -4.0700  12.5652     0.0   19.0366
4141    4121.0  327.980     -4.0699  12.5653     0.0   18.9912
4151    4131.0  328.380     -4.0699  12.5653     0.0   18.9443
4161    4141.0  328.780     -4.0699  12.5653     0.0   18.8971
4171    4151.0  329.180     -4.0697  12.5655     0.0   18.8571
4181    4161.0  329.580     -4.0697  12.5655     0.0   18.8194
4191    4171.0  329.980     -4.0698  12.5654     0.0   18.7802
4201    4181.0  330.380     -4.0698  12.5654     0.0   18.7405
4211    4191.0  330.780     -4.0699  12.5653     0.0   18.7081
4221    4201.0  331.180     -4.0701  12.5651     0.0   18.6749
4231    4211.0  331.580     -4.0697  12.5654     0.0   18.6423
4241    4221.0  331.980     -4.0699  12.5653     0.0   18.6153
4251    4231.0  332.380     -4.0697  12.5655     0.0   18.5851
4261    4241.0  332.780     -4.0697  12.5654     0.0   18.5535
4271    4251.0  333.180     -4.0697  12.5655     0.0   18.5272
4281    4261.0  333.580     -4.0697  12.5655     0.0   18.5037
4291    4271.0  333.980     -4.0698  12.5653     0.0   18.4760
4301    4281.0  334.380     -4.0699  12.5653     0.0   18.4510
4311    4291.0  334.780     -4.0695  12.5657     0.0   18.4257
4321    4301.0  335.180     -4.0699  12.5653     0.0   18.4006
4331    4311.0  335.580     -4.0698  12.5654     0.0   18.3776
4341    4321.0  335.980     -4.0697  12.5655     0.0   18.3569
4351    4331.0  336.380     -4.0696  12.5656     0.0   18.3341
4361    4341.0  336.780     -4.0697  12.5654     0.0   18.3149
4371    4351.0  337.180     -4.0697  12.5655     0.0   18.2916
4381    4361.0  337.580     -4.0700  12.5652     0.0   18.2726
4391    4371.0  337.980     -4.0697  12.5655     0.0   18.2538
4401    4381.0  338.380     -4.0696  12.5656     0.0   18.2333
4411    4391.0  338.780     -4.0696  12.5656     0.0   18.2159
4421    4401.0  339.180     -4.0698  12.5653     0.0   18.1992
4431    4411.0  339.580     -4.0697  12.5655     0.0   18.1827
4441    4421.0  339.980     -4.0697  12.5655     0.0   18.1645
4451    4431.0  340.380     -4.0699  12.5653     0.0   18.1438
4461    4441.0  340.780     -4.0697  12.5655     0.0   18.1301
4471    4451.0  341.180     -4.0698  12.5654     0.0   18.1135
4481    4461.0  341.580     -4.0699  12.5653     0.0   18.0972
4491    4471.0  341.980     -4.0698  12.5654     0.0   18.0832
4501    4481.0  342.380     -4.0698  12.5654     0.0   18.0642
4511    4491.0  342.780     -4.0697  12.5655     0.0   18.0479
4528    4501.0  343.255     -4.0585  12.5766     0.0   18.2574
4538    4511.0  343.655     -4.0451  12.5901     0.0   18.4781
4548    4521.0  344.055     -4.0320  12.6032     0.0   18.6877
4558    4531.0  344.455     -4.0186  12.6166     0.0   18.8878
4568    4541.0  344.855     -4.0052  12.6300     0.0   19.0794
4578    4551.0  345.255     -3.9921  12.6430     0.0   19.2617
4588    4561.0  345.655     -3.9788  12.6564     0.0   19.4396
4598    4571.0  346.055     -3.9653  12.6699     0.0   19.6149
4608    4581.0  346.455     -3.9520  12.6831     0.0   19.7697
4618    4591.0  346.855     -3.9387  12.6965     0.0   19.9185
4628    4601.0  347.255     -3.9256  12.7096     0.0   20.0636
4638    4611.0  347.655     -3.9123  12.7229     0.0   20.1936
4648    4621.0  348.055     -3.8987  12.7364     0.0   20.3277
4658    4631.0  348.455     -3.8855  12.7497     0.0   20.4442
4668    4641.0  348.855     -3.8720  12.7632     0.0   20.5618
4678    4651.0  349.255     -3.8590  12.7762     0.0   20.6798
4688    4661.0  349.655     -3.8456  12.7896     0.0   20.7922
4698    4671.0  350.055     -3.8320  12.8032     0.0   20.9001
4708    4681.0  350.455     -3.8188  12.8164     0.0   21.0124
4718    4691.0  350.855     -3.8057  12.8295     0.0   21.1207
4728    4701.0  351.255     -3.7923  12.8429     0.0   21.2252
4738    4711.0  351.655     -3.7786  12.8566     0.0   21.3269
4748    4721.0  352.055     -3.7655  12.8697     0.0   21.4287
4758    4731.0  352.455     -3.7522  12.8830     0.0   21.5291
4768    4741.0  352.855     -3.7388  12.8964     0.0   21.6272
4778    4751.0  353.255     -3.7255  12.9097     0.0   21.7231
4788    4761.0  353.655     -3.7122  12.9230     0.0   21.8144
4798    4771.0  354.055     -3.6990  12.9361     0.0   21.9137
4808    4781.0  354.455     -3.6858  12.9494     0.0   22.0020
4818    4791.0  354.855     -3.6721  12.9630     0.0   22.0968
4828    4801.0  355.255     -3.6592  12.9760     0.0   22.1853
4838    4811.0  355.655     -3.6459  12.9893     0.0   22.2746
4848    4821.0  356.055     -3.6322  13.0030     0.0   22.3621
4858    4831.0  356.455     -3.6189  13.0163     0.0   22.4502
4868    4841.0  356.855     -3.6058  13.0294     0.0   22.5351
4878    4851.0  357.255     -3.5924  13.0428     0.0   22.6257
4888    4861.0  357.655     -3.5790  13.0562     0.0   22.7107
4898    4871.0  358.055     -3.5657  13.0694     0.0   22.7973
4908    4881.0  358.455     -3.5521  13.0831     0.0   22.8857
4918    4891.0  358.855     -3.5388  13.0964     0.0   22.9674
4928    4901.0  359.255     -3.5255  13.1096     0.0   23.0539
4938    4911.0  359.655     -3.5123  13.1229     0.0   23.1382
4948    4921.0  360.055     -3.4988  13.1363     0.0   23.2252
4958    4931.0  360.455     -3.4855  13.1496     0.0   23.3101
4968    4941.0  360.855     -3.4726  13.1626     0.0   23.3895
4978    4951.0  361.255     -3.4592  13.1760     0.0   23.4744
4988    4961.0  361.655     -3.4458  13.1894     0.0   23.5574
4998    4971.0  362.055     -3.4324  13.2028     0.0   23.6475
5008    4981.0  362.455     -3.4191  13.2160     0.0   23.7327
5018    4991.0  362.855     -3.4055  13.2297     0.0   23.8223
5028    5001.0  363.255     -3.3922  13.2429     0.0   23.9031
5038    5011.0  363.655     -3.3790  13.2562     0.0   23.9825
5048    5021.0  364.055     -3.3657  13.2695     0.0   24.0670
5058    5031.0  364.455     -3.3528  13.2824     0.0   24.1537
5068    5041.0  364.855     -3.3390  13.2962     0.0   24.2340
5078    5051.0  365.255     -3.3260  13.3092     0.0   24.3195
5088    5061.0  365.655     -3.3123  13.3229     0.0   24.4075
5098    5071.0  366.055     -3.2991  13.3361     0.0   24.4917
5108    5081.0  366.455     -3.2858  13.3494     0.0   24.5774
5118    5091.0  366.855     -3.2725  13.3627     0.0   24.6595
5128    5101.0  367.255     -3.2591  13.3760     0.0   24.7503
5138    5111.0  367.655     -3.2459  13.3893     0.0   24.8332
5148    5121.0  368.055     -3.2323  13.4029     0.0   24.9227
5158    5131.0  368.455     -3.2193  13.4159     0.0   25.0078
5168    5141.0  368.855     -3.2057  13.4294     0.0   25.0919
5178    5151.0  369.255     -3.1927  13.4425     0.0   25.1810
5188    5161.0  369.655     -3.1790  13.4562     0.0   25.2710
5198    5171.0  370.055     -3.1660  13.4692     0.0   25.3569
5208    5181.0  370.455     -3.1526  13.4826     0.0   25.4413
5218    5191.0  370.855     -3.1391  13.4961     0.0   25.5334
5228    5201.0  371.255     -3.1257  13.5095     0.0   25.6254
5238    5211.0  371.655     -3.1124  13.5228     0.0   25.7113
5248    5221.0  372.055     -3.0992  13.5360     0.0   25.7953
5258    5231.0  372.455     -3.0858  13.5494     0.0   25.8888
5268    5241.0  372.855     -3.0725  13.5627     0.0   25.9757
5278    5251.0  373.255     -3.0593  13.5759     0.0   26.0657
5288    5261.0  373.655     -3.0458  13.5894     0.0   26.1582
5298    5271.0  374.055     -3.0326  13.6025     0.0   26.2510
5308    5281.0  374.455     -3.0193  13.6159     0.0   26.3425
5318    5291.0  374.855     -3.0059  13.6292     0.0   26.4335
5328    5301.0  375.255     -2.9925  13.6427     0.0   26.5264
5338    5311.0  375.655     -2.9796  13.6555     0.0   26.6172
5348    5321.0  376.055     -2.9660  13.6692     0.0   26.7117
5358    5331.0  376.455     -2.9526  13.6826     0.0   26.8018
5368    5341.0  376.855     -2.9394  13.6958     0.0   26.8944
5378    5351.0  377.255     -2.9260  13.7092     0.0   26.9926
5388    5361.0  377.655     -2.9127  13.7225     0.0   27.0827
5398    5371.0  378.055     -2.8993  13.7359     0.0   27.1784
5408    5381.0  378.455     -2.8860  13.7492     0.0   27.2694
5418    5391.0  378.855     -2.8727  13.7625     0.0   27.3627
5428    5401.0  379.255     -2.8595  13.7757     0.0   27.4577
5438    5411.0  379.655     -2.8461  13.7891     0.0   27.5532
5448    5421.0  380.055     -2.8328  13.8024     0.0   27.6485
5458    5431.0  380.455     -2.8194  13.8158     0.0   27.7443
5468    5441.0  380.855     -2.8062  13.8289     0.0   27.8398
5478    5451.0  381.255     -2.7928  13.8424     0.0   27.9372
5488    5461.0  381.655     -2.7795  13.8557     0.0   28.0338
5498    5471.0  382.055     -2.7661  13.8691     0.0   28.1328
5508    5481.0  382.455     -2.7528  13.8824     0.0   28.2330
5518    5491.0  382.855     -2.7395  13.8957     0.0   28.3272
5528    5501.0  383.255     -2.7260  13.9092     0.0   28.4268
5538    5511.0  383.655     -2.7128  13.9224     0.0   28.5256
5548    5521.0  384.055     -2.6995  13.9357     0.0   28.6281
5558    5531.0  384.455     -2.6860  13.9492     0.0   28.7263
5568    5541.0  384.855     -2.6727  13.9625     0.0   28.8230
5578    5551.0  385.255     -2.6593  13.9758     0.0   28.9212
5588    5561.0  385.655     -2.6462  13.9889     0.0   29.0205
5598    5571.0  386.055     -2.6330  14.0022     0.0   29.1197
5608    5581.0  386.455     -2.6195  14.0157     0.0   29.2226
5618    5591.0  386.855     -2.6059  14.0292     0.0   29.3257
5628    5601.0  387.255     -2.5927  14.0424     0.0   29.4283
5638    5611.0  387.655     -2.5796  14.0556     0.0   29.5284
5648    5621.0  388.055     -2.5661  14.0691     0.0   29.6279
5658    5631.0  388.455     -2.5530  14.0822     0.0   29.7338
5668    5641.0  388.855     -2.5396  14.0956     0.0   29.8327
5678    5651.0  389.255     -2.5260  14.1092     0.0   29.9378
5694    5661.0  389.650     -2.5417  14.0935     0.0   29.4177
5704    5671.0  390.050     -2.5417  14.0935     0.0   29.3314
5714    5681.0  390.450     -2.5417  14.0935     0.0   29.2369
5724    5691.0  390.850     -2.5418  14.0933     0.0   29.1557
5734    5701.0  391.250     -2.5418  14.0933     0.0   29.0808
5744    5711.0  391.650     -2.5416  14.0936     0.0   29.0071
5754    5721.0  392.050     -2.5417  14.0935     0.0   28.9379
5764    5731.0  392.450     -2.5417  14.0935     0.0   28.8731
5774    5741.0  392.850     -2.5415  14.0937     0.0   28.8125
5784    5751.0  393.250     -2.5417  14.0935     0.0   28.7551
5794    5761.0  393.650     -2.5418  14.0934     0.0   28.6982
5804    5771.0  394.050     -2.5417  14.0935     0.0   28.6474
5814    5781.0  394.450     -2.5415  14.0937     0.0   28.6031
5824    5791.0  394.850     -2.5417  14.0935     0.0   28.5654
5834    5801.0  395.250     -2.5419  14.0933     0.0   28.5273
5844    5811.0  395.650     -2.5418  14.0934     0.0   28.4755
5854    5821.0  396.050     -2.5418  14.0934     0.0   28.4033
5864    5831.0  396.450     -2.5417  14.0935     0.0   28.3905
5874    5841.0  396.850     -2.5415  14.0936     0.0   28.3167
5884    5851.0  397.250     -2.5415  14.0936     0.0   28.2897
5894    5861.0  397.650     -2.5416  14.0935     0.0   28.2670
5904    5871.0  398.050     -2.5416  14.0936     0.0   28.2100
5914    5881.0  398.450     -2.5417  14.0935     0.0   28.1889
5924    5891.0  398.850     -2.5417  14.0935     0.0   28.1522
5934    5901.0  399.250     -2.5416  14.0936     0.0   28.1115
5944    5911.0  399.650     -2.5419  14.0933     0.0   28.0919
5954    5921.0  400.050     -2.5419  14.0933     0.0   28.0502
5964    5931.0  400.450     -2.5416  14.0935     0.0   28.0254
5974    5941.0  400.850     -2.5417  14.0934     0.0   28.0055
5984    5951.0  401.250     -2.5418  14.0934     0.0   27.9681
5994    5961.0  401.650     -2.5416  14.0936     0.0   27.9505
6004    5971.0  402.050     -2.5417  14.0935     0.0   27.9192
6014    5981.0  402.450     -2.5416  14.0936     0.0   27.8919
6024    5991.0  402.850     -2.5418  14.0934     0.0   27.8737
6034    6001.0  403.250     -2.5417  14.0935     0.0   27.8407
6044    6011.0  403.650     -2.5415  14.0937     0.0   27.8194
6054    6021.0  404.050     -2.5415  14.0937     0.0   27.7994
6064    6031.0  404.450     -2.5415  14.0937     0.0   27.7698
6074    6041.0  404.850     -2.5414  14.0937     0.0   27.7526
6084    6051.0  405.250     -2.5415  14.0937     0.0   27.7240
6094    6061.0  405.650     -2.5418  14.0934     0.0   27.7054
6104    6071.0  406.050     -2.5418  14.0934     0.0   27.6931
6114    6081.0  406.450     -2.5415  14.0937     0.0   27.6643
6124    6091.0  406.850     -2.5416  14.0936     0.0   27.6530
6134    6101.0  407.250     -2.5417  14.0935     0.0   27.6233
6144    6111.0  407.650     -2.5416  14.0936     0.0   27.6051
6154    6121.0  408.050     -2.5415  14.0936     0.0   27.5950
6164    6131.0  408.450     -2.5415  14.0936     0.0   27.5700
6174    6141.0  408.850     -2.5418  14.0934     0.0   27.5513
6184    6151.0  409.250     -2.5415  14.0937     0.0   27.5377
6194    6161.0  409.650     -2.5416  14.0936     0.0   27.5144
6204    6171.0  410.050     -2.5414  14.0938     0.0   27.5011
6214    6181.0  410.450     -2.5415  14.0937     0.0   27.4804
6224    6191.0  410.850     -2.5417  14.0935     0.0   27.4638
6234    6201.0  411.250     -2.5417  14.0934     0.0   27.4489
6244    6211.0  411.650     -2.5415  14.0936     0.0   27.4286
6254    6221.0  412.050     -2.5415  14.0937     0.0   27.4195
6264    6231.0  412.450     -2.5415  14.0937     0.0   27.4006
6274    6241.0  412.850     -2.5415  14.0937     0.0   27.3826
6284    6251.0  413.250     -2.5415  14.0936     0.0   27.3713
6294    6261.0  413.650     -2.5414  14.0938     0.0   27.3535
6304    6271.0  414.050     -2.5415  14.0937     0.0   27.3389
6314    6281.0  414.450     -2.5412  14.0940     0.0   27.3247
6324    6291.0  414.850     -2.5416  14.0936     0.0   27.3069
6334    6301.0  415.250     -2.5415  14.0937     0.0   27.2936
6344    6311.0  415.650     -2.5415  14.0936     0.0   27.2776
6354    6321.0  416.050     -2.5417  14.0935     0.0   27.2645
6364    6331.0  416.450     -2.5415  14.0936     0.0   27.2531
6374    6341.0  416.850     -2.5415  14.0937     0.0   27.2400
6384    6351.0  417.250     -2.5417  14.0935     0.0   27.2303
6394    6361.0  417.650     -2.5417  14.0935     0.0   27.2128
6404    6371.0  418.050     -2.5414  14.0937     0.0   27.2017
6414    6381.0  418.450     -2.5413  14.0939     0.0   27.1893
6424    6391.0  418.850     -2.5413  14.0939     0.0   27.1752
6434    6401.0  419.250     -2.5415  14.0936     0.0   27.1666
6444    6411.0  419.650     -2.5415  14.0937     0.0   27.1524
6454    6421.0  420.050     -2.5417  14.0935     0.0   27.1407
6464    6431.0  420.450     -2.5417  14.0935     0.0   27.1300
6474    6441.0  420.850     -2.5416  14.0936     0.0   27.1192
6484    6451.0  421.250     -2.5416  14.0936     0.0   27.1070
6494    6461.0  421.650     -2.5417  14.0935     0.0   27.0944
6504    6471.0  422.050     -2.5417  14.0935     0.0   27.0850
6514    6481.0  422.450     -2.5416  14.0936     0.0   27.0745
6524    6491.0  422.850     -2.5415  14.0937     0.0   27.0545
6534    6501.0  423.250     -2.5416  14.0936     0.0   27.0449
6544    6511.0  423.650     -2.5414  14.0938     0.0   27.0357
6554    6521.0  424.050     -2.5417  14.0935     0.0   27.0247
6564    6531.0  424.450     -2.5415  14.0937     0.0   27.0184
6574    6541.0  424.850     -2.5418  14.0934     0.0   27.0025
6584    6551.0  425.250     -2.5416  14.0936     0.0   26.9993
6594    6561.0  425.650     -2.5414  14.0937     0.0   26.9886
6604    6571.0  426.050     -2.5415  14.0937     0.0   26.9749
6614    6581.0  426.450     -2.5415  14.0937     0.0   26.9689
6624    6591.0  426.850     -2.5415  14.0937     0.0   26.9560
6634    6601.0  427.250     -2.5416  14.0935     0.0   26.9458
6644    6611.0  427.650     -2.5416  14.0936     0.0   26.9360
6654    6621.0  428.050     -2.5416  14.0936     0.0   26.9249
6664    6631.0  428.450     -2.5414  14.0937     0.0   26.9183
6674    6641.0  428.850     -2.5415  14.0936     0.0   26.9069
6684    6651.0  429.250     -2.5416  14.0936     0.0   26.8978
6694    6661.0  429.650     -2.5417  14.0935     0.0   26.8922
6704    6671.0  430.050     -2.5414  14.0937     0.0   26.8796
6714    6681.0  430.450     -2.5414  14.0938     0.0   26.8723
6724    6691.0  430.850     -2.5415  14.0937     0.0   26.8607
6734    6701.0  431.250     -2.5414  14.0938     0.0   26.8493
6744    6711.0  431.650     -2.5416  14.0936     0.0   26.8441
6754    6721.0  432.050     -2.5416  14.0936     0.0   26.8333
6764    6731.0  432.450     -2.5416  14.0936     0.0   26.8277
6774    6741.0  432.850     -2.5416  14.0936     0.0   26.8177
6784    6751.0  433.250     -2.5416  14.0936     0.0   26.8158
6794    6761.0  433.650     -2.5416  14.0936     0.0   26.8198
6804    6771.0  434.050     -2.5415  14.0936     0.0   26.8108
6814    6781.0  434.450     -2.5415  14.0937     0.0   26.8027
6824    6791.0  434.850     -2.5415  14.0937     0.0   26.7883
6834    6801.0  435.250     -2.5416  14.0936     0.0   26.7728
6844    6811.0  435.650     -2.5416  14.0936     0.0   26.7679
6854    6821.0  436.050     -2.5416  14.0936     0.0   26.7521
6864    6831.0  436.450     -2.5416  14.0936     0.0   26.7437
6874    6841.0  436.850     -2.5416  14.0936     0.0   26.7425
6884    6851.0  437.250     -2.5415  14.0936     0.0   26.7294
6894    6861.0  437.650     -2.5416  14.0935     0.0   26.7202
6904    6871.0  438.050     -2.5415  14.0936     0.0   26.7199
6914    6881.0  438.450     -2.5416  14.0936     0.0   26.7058
6924    6891.0  438.850     -2.5416  14.0936     0.0   26.6955
6934    6901.0  439.250     -2.5415  14.0936     0.0   26.6937
6944    6911.0  439.650     -2.5418  14.0934     0.0   26.6824
6954    6921.0  440.050     -2.5417  14.0934     0.0   26.6768
6964    6931.0  440.450     -2.5417  14.0935     0.0   26.6714
6974    6941.0  440.850     -2.5414  14.0938     0.0   26.6620
6984    6951.0  441.250     -2.5415  14.0937     0.0   26.6567
6994    6961.0  441.650     -2.5418  14.0934     0.0   26.6464
7004    6971.0  442.050     -2.5417  14.0935     0.0   26.6411
7014    6981.0  442.450     -2.5414  14.0938     0.0   26.6344
7031    6991.0  442.900     -2.5415  14.0937     0.0   26.6275
7041    7001.0  443.300     -2.5292  14.1060     0.0   26.9104
7051    7011.0  443.700     -2.5160  14.1192     0.0   27.1887
7061    7021.0  444.100     -2.5027  14.1325     0.0   27.4658
7071    7031.0  444.500     -2.4895  14.1457     0.0   27.7276
7081    7041.0  444.900     -2.4762  14.1590     0.0   27.9854
7091    7051.0  445.300     -2.4629  14.1723     0.0   28.2386
7101    7061.0  445.700     -2.4495  14.1856     0.0   28.4803
7111    7071.0  446.100     -2.4361  14.1990     0.0   28.7215
7121    7081.0  446.500     -2.4229  14.2122     0.0   28.9563
7131    7091.0  446.900     -2.4096  14.2256     0.0   29.1823
7141    7101.0  447.300     -2.3963  14.2389     0.0   29.4041
7151    7111.0  447.700     -2.3828  14.2524     0.0   29.6148
7161    7121.0  448.100     -2.3699  14.2653     0.0   29.8200
7171    7131.0  448.500     -2.3563  14.2788     0.0   30.0206
7181    7141.0  448.900     -2.3431  14.2921     0.0   30.2147
7191    7151.0  449.300     -2.3297  14.3055     0.0   30.4062
7201    7161.0  449.700     -2.3165  14.3186     0.0   30.5900
7211    7171.0  450.100     -2.3029  14.3322     0.0   30.7683
7221    7181.0  450.500     -2.2897  14.3455     0.0   30.9493
7231    7191.0  450.900     -2.2763  14.3589     0.0   31.1246
7241    7201.0  451.300     -2.2631  14.3721     0.0   31.2943
7251    7211.0  451.700     -2.2496  14.3855     0.0   31.4645
7261    7221.0  452.100     -2.2364  14.3987     0.0   31.6266
7271    7231.0  452.500     -2.2231  14.4121     0.0   31.7895
7281    7241.0  452.900     -2.2098  14.4253     0.0   31.9527
7291    7251.0  453.300     -2.1966  14.4386     0.0   32.1123
7301    7261.0  453.700     -2.1832  14.4519     0.0   32.2724
7311    7271.0  454.100     -2.1700  14.4652     0.0   32.4259
7321    7281.0  454.500     -2.1566  14.4786     0.0   32.5825
7331    7291.0  454.900     -2.1432  14.4920     0.0   32.7373
7341    7301.0  455.300     -2.1300  14.5052     0.0   32.8896
7351    7311.0  455.700     -2.1167  14.5185     0.0   33.0413
7361    7321.0  456.100     -2.1033  14.5319     0.0   33.1917
7371    7331.0  456.500     -2.0899  14.5453     0.0   33.3355
7381    7341.0  456.900     -2.0766  14.5586     0.0   33.4793
7391    7351.0  457.300     -2.0634  14.5718     0.0   33.6200
7401    7361.0  457.700     -2.0499  14.5852     0.0   33.7665
7411    7371.0  458.100     -2.0365  14.5987     0.0   33.9086
7421    7381.0  458.500     -2.0233  14.6119     0.0   34.0472
7431    7391.0  458.900     -2.0099  14.6252     0.0   34.1874
7441    7401.0  459.300     -1.9967  14.6385     0.0   34.3285
7451    7411.0  459.700     -1.9834  14.6518     0.0   34.4656
7461    7421.0  460.100     -1.9699  14.6652     0.0   34.6007
7471    7431.0  460.500     -1.9566  14.6786     0.0   34.7368
7481    7441.0  460.900     -1.9433  14.6919     0.0   34.8710
7491    7451.0  461.300     -1.9301  14.7051     0.0   35.0038
7501    7461.0  461.700     -1.9167  14.7185     0.0   35.1363
7511    7471.0  462.100     -1.9036  14.7316     0.0   35.2647
7521    7481.0  462.500     -1.8901  14.7451     0.0   35.4032
7531    7491.0  462.900     -1.8766  14.7585     0.0   35.5297
7541    7501.0  463.300     -1.8633  14.7719     0.0   35.6624
7551    7511.0  463.700     -1.8499  14.7853     0.0   35.7915
7561    7521.0  464.100     -1.8367  14.7985     0.0   35.9227
7571    7531.0  464.500     -1.8234  14.8117     0.0   36.0511
7581    7541.0  464.900     -1.8101  14.8251     0.0   36.1770
7591    7551.0  465.300     -1.7970  14.8382     0.0   36.3079
7601    7561.0  465.700     -1.7833  14.8519     0.0   36.4338
7611    7571.0  466.100     -1.7700  14.8652     0.0   36.5589
7621    7581.0  466.500     -1.7569  14.8783     0.0   36.6847
7631    7591.0  466.900     -1.7435  14.8917     0.0   36.8130
7641    7601.0  467.300     -1.7300  14.9052     0.0   36.9373
7651    7611.0  467.700     -1.7167  14.9185     0.0   37.0589
7661    7621.0  468.100     -1.7035  14.9317     0.0   37.1837
7671    7631.0  468.500     -1.6902  14.9450     0.0   37.3092
7681    7641.0  468.900     -1.6770  14.9582     0.0   37.4323
7691    7651.0  469.300     -1.6635  14.9717     0.0   37.5577
7701    7661.0  469.700     -1.6502  14.9850     0.0   37.6807
7711    7671.0  470.100     -1.6370  14.9982     0.0   37.8025
7721    7681.0  470.500     -1.6236  15.0116     0.0   37.9258
7731    7691.0  470.900     -1.6103  15.0249     0.0   38.0526
7741    7701.0  471.300     -1.5969  15.0382     0.0   38.1762
7751    7711.0  471.700     -1.5835  15.0517     0.0   38.3025
7761    7721.0  472.100     -1.5701  15.0651     0.0   38.4282
7771    7731.0  472.500     -1.5567  15.0785     0.0   38.5502
7781    7741.0  472.900     -1.5436  15.0916     0.0   38.6753
7791    7751.0  473.300     -1.5303  15.1049     0.0   38.7964
7801    7761.0  473.700     -1.5168  15.1183     0.0   38.9258
7811    7771.0  474.100     -1.5038  15.1313     0.0   39.0430
7821    7781.0  474.500     -1.4904  15.1448     0.0   39.1713
7831    7791.0  474.900     -1.4770  15.1582     0.0   39.2973
7841    7801.0  475.300     -1.4637  15.1715     0.0   39.4186
7851    7811.0  475.700     -1.4503  15.1848     0.0   39.5490
7861    7821.0  476.100     -1.4370  15.1982     0.0   39.6728
7871    7831.0  476.500     -1.4237  15.2114     0.0   39.7981
7881    7841.0  476.900     -1.4104  15.2248     0.0   39.9232
7897    7851.0  477.305     -1.4263  15.2089     0.0   39.3543
7907    7861.0  477.705     -1.4262  15.2090     0.0   39.2573
7917    7871.0  478.105     -1.4262  15.2090     0.0   39.1600
7927    7881.0  478.505     -1.4261  15.2091     0.0   39.0727
7937    7891.0  478.905     -1.4261  15.2091     0.0   38.9869
7947    7901.0  479.305     -1.4262  15.2089     0.0   38.9099
7957    7911.0  479.705     -1.4263  15.2089     0.0   38.8334
7967    7921.0  480.105     -1.4262  15.2089     0.0   38.7598
7977    7931.0  480.505     -1.4262  15.2090     0.0   38.6929
7987    7941.0  480.905     -1.4260  15.2092     0.0   38.6322
7997    7951.0  481.305     -1.4260  15.2092     0.0   38.5691
8007    7961.0  481.705     -1.4260  15.2092     0.0   38.5132
8017    7971.0  482.105     -1.4261  15.2090     0.0   38.4561
8027    7981.0  482.505     -1.4261  15.2091     0.0   38.4038
8037    7991.0  482.905     -1.4260  15.2092     0.0   38.3509
8047    8001.0  483.305     -1.4261  15.2091     0.0   38.3047
8057    8011.0  483.705     -1.4261  15.2090     0.0   38.2564
8067    8021.0  484.105     -1.4261  15.2091     0.0   38.2090
8077    8031.0  484.505     -1.4260  15.2091     0.0   38.1668
8087    8041.0  484.905     -1.4260  15.2091     0.0   38.1217
8097    8051.0  485.305     -1.4261  15.2091     0.0   38.0828
8107    8061.0  485.705     -1.4258  15.2093     0.0   38.0433
8117    8071.0  486.105     -1.4260  15.2092     0.0   38.0041
8127    8081.0  486.505     -1.4261  15.2091     0.0   37.9669
8137    8091.0  486.905     -1.4259  15.2092     0.0   37.9317
8147    8101.0  487.305     -1.4258  15.2094     0.0   37.8964
8157    8111.0  487.705     -1.4260  15.2092     0.0   37.8608
8167    8121.0  488.105     -1.4260  15.2091     0.0   37.8272
8177    8131.0  488.505     -1.4260  15.2092     0.0   37.7959
8187    8141.0  488.905     -1.4261  15.2091     0.0   37.7614
8197    8151.0  489.305     -1.4260  15.2092     0.0   37.7318
8207    8161.0  489.705     -1.4260  15.2092     0.0   37.7002
8217    8171.0  490.105     -1.4260  15.2092     0.0   37.6740
8227    8181.0  490.505     -1.4259  15.2093     0.0   37.6442
8237    8191.0  490.905     -1.4258  15.2094     0.0   37.6157
8248    8201.0  491.305     -1.4259  15.2092     0.0   37.5834
8258    8211.0  491.705     -1.4260  15.2091     0.0   37.5559
8268    8221.0  492.105     -1.4260  15.2092     0.0   37.5315
8278    8231.0  492.505     -1.4260  15.2092     0.0   37.5064
8288    8241.0  492.905     -1.4260  15.2092     0.0   37.4830
8298    8251.0  493.305     -1.4258  15.2093     0.0   37.4613
8308    8261.0  493.705     -1.4261  15.2091     0.0   37.4338
8318    8271.0  494.105     -1.4260  15.2092     0.0   37.4079
8328    8281.0  494.505     -1.4260  15.2092     0.0   37.3882
8338    8291.0  494.905     -1.4260  15.2092     0.0   37.3647
8348    8301.0  495.305     -1.4259  15.2093     0.0   37.3417
8358    8311.0  495.705     -1.4260  15.2092     0.0   37.3163
8368    8321.0  496.105     -1.4262  15.2090     0.0   37.3053
8378    8331.0  496.505     -1.4260  15.2092     0.0   37.3230
8388    8341.0  496.905     -1.4259  15.2093     0.0   37.2595
8398    8351.0  497.305     -1.4259  15.2093     0.0   37.2483
8408    8361.0  497.705     -1.4259  15.2093     0.0   37.2188
8418    8371.0  498.105     -1.4260  15.2091     0.0   37.2040
8428    8381.0  498.505     -1.4258  15.2094     0.0   37.1814
8438    8391.0  498.905     -1.4261  15.2091     0.0   37.1620
8448    8401.0  499.305     -1.4259  15.2093     0.0   37.1424
8458    8411.0  499.705     -1.4259  15.2093     0.0   37.1188
8468    8421.0  500.105     -1.4259  15.2092     0.0   37.1104
8478    8431.0  500.505     -1.4260  15.2091     0.0   37.0802
8488    8441.0  500.905     -1.4259  15.2092     0.0   37.0712
8498    8451.0  501.305     -1.4261  15.2091     0.0   37.0488
8508    8461.0  501.705     -1.4258  15.2094     0.0   37.0277
8518    8471.0  502.105     -1.4260  15.2092     0.0   37.0183
8528    8481.0  502.505     -1.4260  15.2092     0.0   36.9975
8538    8491.0  502.905     -1.4258  15.2094     0.0   36.9776
8548    8501.0  503.305     -1.4260  15.2092     0.0   36.9648
8558    8511.0  503.705     -1.4259  15.2093     0.0   36.9419
8568    8521.0  504.105     -1.4260  15.2092     0.0   36.9303
8578    8531.0  504.505     -1.4259  15.2093     0.0   36.9140
8588    8541.0  504.905     -1.4260  15.2092     0.0   36.8965
8598    8551.0  505.305     -1.4259  15.2093     0.0   36.8851
8608    8561.0  505.705     -1.4259  15.2093     0.0   36.8655
8618    8571.0  506.105     -1.4258  15.2093     0.0   36.8539
8628    8581.0  506.505     -1.4260  15.2092     0.0   36.8387
8638    8591.0  506.905     -1.4261  15.2091     0.0   36.8214
8648    8601.0  507.305     -1.4260  15.2091     0.0   36.8095
8658    8611.0  507.705     -1.4260  15.2092     0.0   36.7927
8668    8621.0  508.105     -1.4261  15.2091     0.0   36.7833
8678    8631.0  508.505     -1.4261  15.2091     0.0   36.7662
8688    8641.0  508.905     -1.4259  15.2093     0.0   36.7539
8698    8651.0  509.305     -1.4259  15.2093     0.0   36.7424
8708    8661.0  509.705     -1.4259  15.2093     0.0   36.7249
8718    8671.0  510.105     -1.4259  15.2093     0.0   36.7170
8728    8681.0  510.505     -1.4260  15.2092     0.0   36.7012
8738    8691.0  510.905     -1.4259  15.2093     0.0   36.6870
8748    8701.0  511.305     -1.4260  15.2092     0.0   36.6768
8758    8711.0  511.705     -1.4259  15.2093     0.0   36.6612
8768    8721.0  512.105     -1.4259  15.2093     0.0   36.6492
8778    8731.0  512.505     -1.4259  15.2093     0.0   36.6366
8788    8741.0  512.905     -1.4259  15.2093     0.0   36.6427
8798    8751.0  513.305     -1.4259  15.2092     0.0   36.6562
8808    8761.0  513.705     -1.4259  15.2093     0.0   36.6217
8818    8771.0  514.105     -1.4259  15.2092     0.0   36.6030
8828    8781.0  514.505     -1.4258  15.2094     0.0   36.5588
8838    8791.0  514.905     -1.4260  15.2091     0.0   36.5764
8848    8801.0  515.305     -1.4259  15.2093     0.0   36.5457
8858    8811.0  515.705     -1.4259  15.2092     0.0   36.5502
8868    8821.0  516.105     -1.4259  15.2093     0.0   36.5300
8878    8831.0  516.505     -1.4258  15.2093     0.0   36.5208
8888    8841.0  516.905     -1.4259  15.2093     0.0   36.5164
8898    8851.0  517.305     -1.4258  15.2094     0.0   36.4925
8908    8861.0  517.705     -1.4260  15.2092     0.0   36.4859
8918    8871.0  518.105     -1.4259  15.2093     0.0   36.4775
8928    8881.0  518.505     -1.4258  15.2093     0.0   36.4558
8938    8891.0  518.905     -1.4258  15.2094     0.0   36.4624
8948    8901.0  519.305     -1.4260  15.2091     0.0   36.4423
8958    8911.0  519.705     -1.4260  15.2092     0.0   36.4240
8968    8921.0  520.105     -1.4260  15.2092     0.0   36.4230
8978    8931.0  520.505     -1.4259  15.2093     0.0   36.3976
8988    8941.0  520.905     -1.4259  15.2093     0.0   36.3867
8998    8951.0  521.305     -1.4260  15.2092     0.0   36.3771
9008    8961.0  521.705     -1.4259  15.2093     0.0   36.3618
9018    8971.0  522.105     -1.4261  15.2091     0.0   36.3647
9028    8981.0  522.505     -1.4260  15.2092     0.0   36.3578
9038    8991.0  522.905     -1.4259  15.2093     0.0   36.3582
9048    9001.0  523.305     -1.4260  15.2092     0.0   36.3437
9058    9011.0  523.705     -1.4259  15.2093     0.0   36.3317
9068    9021.0  524.105     -1.4258  15.2094     0.0   36.3270
9078    9031.0  524.505     -1.4258  15.2094     0.0   36.3132
9088    9041.0  524.905     -1.4259  15.2093     0.0   36.3077
9098    9051.0  525.305     -1.4260  15.2092     0.0   36.2937
9108    9061.0  525.705     -1.4261  15.2091     0.0   36.2815
9118    9071.0  526.105     -1.4258  15.2094     0.0   36.2790
9128    9081.0  526.505     -1.4260  15.2092     0.0   36.2696
9138    9091.0  526.905     -1.4260  15.2091     0.0   36.2603
9148    9101.0  527.305     -1.4260  15.2092     0.0   36.2505
9158    9111.0  527.705     -1.4258  15.2093     0.0   36.2396
9168    9121.0  528.105     -1.4259  15.2093     0.0   36.2358
9178    9131.0  528.505     -1.4260  15.2092     0.0   36.2263
9188    9141.0  528.905     -1.4258  15.2094     0.0   36.2163
9198    9151.0  529.305     -1.4259  15.2093     0.0   36.2110
9208    9161.0  529.705     -1.4258  15.2094     0.0   36.1996
9218    9171.0  530.105     -1.4258  15.2093     0.0   36.1942
9228    9181.0  530.505     -1.4257  15.2095     0.0   36.1828
9238    9191.0  530.905     -1.4259  15.2092     0.0   36.1725
9248    9201.0  531.305     -1.4259  15.2092     0.0   36.1652
9258    9211.0  531.705     -1.4260  15.2092     0.0   36.1580
9268    9221.0  532.105     -1.4259  15.2093     0.0   36.1504
9278    9231.0  532.505     -1.4258  15.2094     0.0   36.1390
9288    9241.0  532.905     -1.4258  15.2094     0.0   36.1330
9298    9251.0  533.305     -1.4258  15.2094     0.0   36.1319
9308    9261.0  533.705     -1.4258  15.2094     0.0   36.1295
9318    9271.0  534.105     -1.4259  15.2093     0.0   36.1294
9328    9281.0  534.505     -1.4258  15.2093     0.0   36.1061
9338    9291.0  534.905     -1.4259  15.2093     0.0   36.1003
9348    9301.0  535.305     -1.4259  15.2093     0.0   36.0892
9358    9311.0  535.705     -1.4258  15.2094     0.0   36.0782
9368    9321.0  536.105     -1.4259  15.2093     0.0   36.0813
9378    9331.0  536.505     -1.4260  15.2092     0.0   36.0607
9388    9341.0  536.905     -1.4259  15.2093     0.0   36.0647
9398    9351.0  537.305     -1.4259  15.2093     0.0   36.0561
9408    9361.0  537.705     -1.4259  15.2093     0.0   36.0396
9418    9371.0  538.105     -1.4258  15.2093     0.0   36.0458
9428    9381.0  538.505     -1.4258  15.2094     0.0   36.0244
9438    9391.0  538.905     -1.4261  15.2091     0.0   36.0204
9448    9401.0  539.305     -1.4260  15.2092     0.0   36.0189
9458    9411.0  539.705     -1.4259  15.2093     0.0   36.0018
9468    9421.0  540.105     -1.4261  15.2091     0.0   36.0043
9478    9431.0  540.505     -1.4258  15.2093     0.0   35.9929
9488    9441.0  540.905     -1.4258  15.2093     0.0   35.9838
9498    9451.0  541.305     -1.4260  15.2092     0.0   35.9860
9508    9461.0  541.705     -1.4259  15.2092     0.0   35.9715
9518    9471.0  542.105     -1.4259  15.2093     0.0   35.9692
9528    9481.0  542.505     -1.4259  15.2093     0.0   35.9603
9538    9491.0  542.905     -1.4258  15.2094     0.0   35.9490
9548    9501.0  543.305     -1.4260  15.2092     0.0   35.9477
9558    9511.0  543.705     -1.4259  15.2093     0.0   35.9360
9568    9521.0  544.105     -1.4260  15.2092     0.0   35.9338
9578    9531.0  544.505     -1.4260  15.2092     0.0   35.9276
9588    9541.0  544.905     -1.4259  15.2093     0.0   35.9177
9598    9551.0  545.305     -1.4258  15.2094     0.0   35.9133
9608    9561.0  545.705     -1.4259  15.2093     0.0   35.9044
9618    9571.0  546.105     -1.4259  15.2093     0.0   35.9005
9628    9581.0  546.505     -1.4260  15.2092     0.0   35.8929
9638    9591.0  546.905     -1.4259  15.2093     0.0   35.8865
9648    9601.0  547.305     -1.4260  15.2091     0.0   35.8837
9658    9611.0  547.705     -1.4259  15.2093     0.0   35.8726
9668    9621.0  548.105     -1.4258  15.2093     0.0   35.8674
9678    9631.0  548.505     -1.4259  15.2093     0.0   35.8577
9688    9641.0  548.905     -1.4258  15.2093     0.0   35.8545
9698    9651.0  549.305     -1.4259  15.2092     0.0   35.8480
9708    9661.0  549.705     -1.4258  15.2094     0.0   35.8350
9718    9671.0  550.105     -1.4260  15.2092     0.0   35.8381
9728    9681.0  550.505     -1.4260  15.2091     0.0   35.8236
9738    9691.0  550.905     -1.4260  15.2092     0.0   35.8129
9748    9701.0  551.305     -1.4259  15.2093     0.0   35.8132
9758    9711.0  551.705     -1.4260  15.2092     0.0   35.8026
9768    9721.0  552.105     -1.4258  15.2094     0.0   35.8009
9778    9731.0  552.505     -1.4259  15.2093     0.0   35.7975
9788    9741.0  552.905     -1.4259  15.2093     0.0   35.7860
9798    9751.0  553.305     -1.4261  15.2091     0.0   35.7854
9808    9761.0  553.705     -1.4260  15.2092     0.0   35.7780
9818    9771.0  554.105     -1.4260  15.2091     0.0   35.7735
9828    9781.0  554.505     -1.4259  15.2093     0.0   35.7661
9838    9791.0  554.905     -1.4258  15.2093     0.0   35.7589
9848    9801.0  555.305     -1.4258  15.2094     0.0   35.7555
9858    9811.0  555.705     -1.4258  15.2093     0.0   35.7463
9868    9821.0  556.105     -1.4259  15.2093     0.0   35.7424
9878    9831.0  556.505     -1.4259  15.2093     0.0   35.7359
9888    9841.0  556.905     -1.4259  15.2093     0.0   35.7295
9898    9851.0  557.305     -1.4258  15.2094     0.0   35.7261
9908    9861.0  557.705     -1.4259  15.2093     0.0   35.7202
9918    9871.0  558.105     -1.4259  15.2093     0.0   35.7115
9928    9881.0  558.505     -1.4257  15.2095     0.0   35.7061
9938    9891.0  558.905     -1.4260  15.2092     0.0   35.7031
9948    9901.0  559.305     -1.4261  15.2091     0.0   35.6957
9958    9911.0  559.705     -1.4260  15.2092     0.0   35.6898
9968    9921.0  560.105     -1.4261  15.2091     0.0   35.6846
9978    9931.0  560.505     -1.4261  15.2091     0.0   35.6805
9988    9941.0  560.905     -1.4261  15.2091     0.0   35.6762
10004   9951.0  561.360     -1.4160  15.2192     0.0   35.9314
10014   9961.0  561.760     -1.4030  15.2322     0.0   36.2404
10024   9971.0  562.160     -1.3898  15.2454     0.0   36.5519
10034   9981.0  562.560     -1.3765  15.2587     0.0   36.8538
10044   9991.0  562.960     -1.3630  15.2722     0.0   37.1487
10054  10001.0  563.360     -1.3499  15.2853     0.0   37.4372
10064  10011.0  563.760     -1.3366  15.2986     0.0   37.7216
10074  10021.0  564.160     -1.3234  15.3118     0.0   38.0003
10084  10031.0  564.560     -1.3101  15.3251     0.0   38.2707
10094  10041.0  564.960     -1.2967  15.3385     0.0   38.5379
10104  10051.0  565.360     -1.2834  15.3517     0.0   38.7982
10114  10061.0  565.760     -1.2700  15.3652     0.0   39.0529
10124  10071.0  566.160     -1.2566  15.3786     0.0   39.2995
10134  10081.0  566.560     -1.2434  15.3918     0.0   39.5448
10144  10091.0  566.960     -1.2301  15.4051     0.0   39.7791
10154  10101.0  567.360     -1.2167  15.4185     0.0   40.0128
10164  10111.0  567.760     -1.2034  15.4318     0.0   40.2373
10174  10121.0  568.160     -1.1902  15.4450     0.0   40.4585
10184  10131.0  568.560     -1.1768  15.4583     0.0   40.6812
10194  10141.0  568.960     -1.1634  15.4718     0.0   40.8955
10204  10151.0  569.360     -1.1503  15.4849     0.0   41.1052
10214  10161.0  569.760     -1.1369  15.4983     0.0   41.3209
10224  10171.0  570.160     -1.1235  15.5117     0.0   41.5223
10234  10181.0  570.560     -1.1100  15.5251     0.0   41.7268
10244  10191.0  570.960     -1.0967  15.5384     0.0   41.9291
10254  10201.0  571.360     -1.0835  15.5517     0.0   42.1269
10264  10211.0  571.760     -1.0703  15.5649     0.0   42.3206
10274  10221.0  572.160     -1.0570  15.5781     0.0   42.5161
10284  10231.0  572.560     -1.0437  15.5915     0.0   42.7086
10294  10241.0  572.960     -1.0302  15.6050     0.0   42.9040
10304  10251.0  573.360     -1.0170  15.6182     0.0   43.0948
10314  10261.0  573.760     -1.0036  15.6316     0.0   43.2836
10324  10271.0  574.160     -0.9903  15.6449     0.0   43.4687
10334  10281.0  574.560     -0.9770  15.6582     0.0   43.6517
10344  10291.0  574.960     -0.9639  15.6713     0.0   43.8338
10354  10301.0  575.360     -0.9504  15.6848     0.0   44.0160
10364  10311.0  575.760     -0.9372  15.6980     0.0   44.1991
10374  10321.0  576.160     -0.9237  15.7115     0.0   44.3767
10384  10331.0  576.560     -0.9104  15.7248     0.0   44.5539
10394  10341.0  576.960     -0.8972  15.7380     0.0   44.7339
10404  10351.0  577.360     -0.8838  15.7514     0.0   44.9051
10414  10361.0  577.760     -0.8705  15.7647     0.0   45.0759
10424  10371.0  578.160     -0.8572  15.7780     0.0   45.2494
10434  10381.0  578.560     -0.8439  15.7913     0.0   45.4155
10444  10391.0  578.960     -0.8305  15.8047     0.0   45.5856
10454  10401.0  579.360     -0.8168  15.8183     0.0   45.7591
10464  10411.0  579.760     -0.8038  15.8314     0.0   45.9204
10474  10421.0  580.160     -0.7907  15.8445     0.0   46.0866
10484  10431.0  580.560     -0.7773  15.8579     0.0   46.2541
10494  10441.0  580.960     -0.7639  15.8713     0.0   46.4135
10504  10451.0  581.360     -0.7507  15.8845     0.0   46.5768
10514  10461.0  581.760     -0.7373  15.8979     0.0   46.7373
10524  10471.0  582.160     -0.7239  15.9112     0.0   46.8981
10534  10481.0  582.560     -0.7107  15.9245     0.0   47.0564
10544  10491.0  582.960     -0.6974  15.9378     0.0   47.2107
10554  10501.0  583.360     -0.6842  15.9510     0.0   47.3704
10564  10511.0  583.760     -0.6705  15.9646     0.0   47.5284
10574  10521.0  584.160     -0.6574  15.9778     0.0   47.6842
10584  10531.0  584.560     -0.6439  15.9913     0.0   47.8405
10594  10541.0  584.960     -0.6307  16.0045     0.0   47.9917
10604  10551.0  585.360     -0.6173  16.0179     0.0   48.1430
10614  10561.0  585.760     -0.6041  16.0311     0.0   48.2932
10624  10571.0  586.160     -0.5907  16.0445     0.0   48.4463
10634  10581.0  586.560     -0.5773  16.0579     0.0   48.5939
10644  10591.0  586.960     -0.5641  16.0711     0.0   48.7420
10654  10601.0  587.360     -0.5508  16.0844     0.0   48.8952
10664  10611.0  587.760     -0.5375  16.0977     0.0   49.0382
10674  10621.0  588.160     -0.5241  16.1111     0.0   49.1876
10684  10631.0  588.560     -0.5108  16.1243     0.0   49.3318
10694  10641.0  588.960     -0.4974  16.1378     0.0   49.4780
10704  10651.0  589.360     -0.4842  16.1510     0.0   49.6244
10714  10661.0  589.760     -0.4708  16.1644     0.0   49.7644
10724  10671.0  590.160     -0.4574  16.1777     0.0   49.9091
10734  10681.0  590.560     -0.4443  16.1908     0.0   50.0497
10744  10691.0  590.960     -0.4309  16.2042     0.0   50.1921
10754  10701.0  591.360     -0.4174  16.2178     0.0   50.3373
10764  10711.0  591.760     -0.4042  16.2310     0.0   50.4761
10774  10721.0  592.160     -0.3908  16.2443     0.0   50.6153
10784  10731.0  592.560     -0.3776  16.2576     0.0   50.7577
10794  10741.0  592.960     -0.3642  16.2710     0.0   50.8959
10804  10751.0  593.360     -0.3508  16.2844     0.0   51.0353
10814  10761.0  593.760     -0.3377  16.2975     0.0   51.1730
10824  10771.0  594.160     -0.3243  16.3109     0.0   51.3105
10834  10781.0  594.560     -0.3111  16.3241     0.0   51.4436
10844  10791.0  594.960     -0.2976  16.3376     0.0   51.5840
10854  10801.0  595.360     -0.2842  16.3510     0.0   51.7183
10864  10811.0  595.760     -0.2708  16.3643     0.0   51.8504
10874  10821.0  596.160     -0.2576  16.3775     0.0   51.9862
10884  10831.0  596.560     -0.2443  16.3909     0.0   52.1194
10894  10841.0  596.960     -0.2311  16.4041     0.0   52.2519
10904  10851.0  597.360     -0.2175  16.4177     0.0   52.3870
10914  10861.0  597.760     -0.2043  16.4309     0.0   52.5151
10924  10871.0  598.160     -0.1909  16.4443     0.0   52.6398
10934  10881.0  598.560     -0.1776  16.4576     0.0   52.7716
10944  10891.0  598.960     -0.1643  16.4709     0.0   52.8976
10954  10901.0  599.360     -0.1510  16.4842     0.0   53.0224
10964  10911.0  599.760     -0.1377  16.4975     0.0   53.1461
10974  10921.0  600.160     -0.1242  16.5110     0.0   53.2717
10984  10931.0  600.560     -0.1110  16.5242     0.0   53.3938
10994  10941.0  600.960     -0.0975  16.5377     0.0   53.5142
11004  10951.0  601.360     -0.0845  16.5507     0.0   53.6340
11014  10961.0  601.760     -0.0711  16.5641     0.0   53.7529
11024  10971.0  602.160     -0.0577  16.5775     0.0   53.8710
11034  10981.0  602.560     -0.0443  16.5909     0.0   53.9887
11044  10991.0  602.960     -0.0310  16.6042     0.0   54.1023
11054  11001.0  603.360     -0.0177  16.6175     0.0   54.2167
11064  11011.0  603.760     -0.0044  16.6308     0.0   54.3301
11074  11021.0  604.160      0.0089  16.6441     0.0   54.4402
11084  11031.0  604.560      0.0223  16.6574     0.0   54.5504
11094  11041.0  604.960      0.0355  16.6707     0.0   54.6591
11104  11051.0  605.360      0.0488  16.6840     0.0   54.7686
11114  11061.0  605.760      0.0622  16.6974     0.0   54.8740
11124  11071.0  606.160      0.0756  16.7108     0.0   54.9834
11134  11081.0  606.560      0.0890  16.7242     0.0   55.0869
11144  11091.0  606.960      0.1022  16.7374     0.0   55.1893
11154  11101.0  607.360      0.1157  16.7508     0.0   55.2926
11164  11111.0  607.760      0.1289  16.7641     0.0   55.3978
11174  11121.0  608.160      0.1423  16.7775     0.0   55.4939
11184  11131.0  608.560      0.1555  16.7907     0.0   55.5951
11194  11141.0  608.960      0.1689  16.8041     0.0   55.6974
11204  11151.0  609.360      0.1823  16.8175     0.0   55.7954
11214  11161.0  609.760      0.1956  16.8308     0.0   55.8883
11224  11171.0  610.160      0.2088  16.8440     0.0   55.9854
11234  11181.0  610.560      0.2222  16.8573     0.0   56.0801
11244  11191.0  610.960      0.2355  16.8707     0.0   56.1731
11254  11201.0  611.360      0.2488  16.8840     0.0   56.2691
11264  11211.0  611.760      0.2622  16.8974     0.0   56.3588
11274  11221.0  612.160      0.2755  16.9106     0.0   56.4534
11284  11231.0  612.560      0.2886  16.9238     0.0   56.5427
11294  11241.0  612.960      0.3021  16.9373     0.0   56.6309
11304  11251.0  613.360      0.3154  16.9506     0.0   56.7223
11314  11261.0  613.760      0.3289  16.9640     0.0   56.8097
11324  11271.0  614.160      0.3423  16.9774     0.0   56.8943
11334  11281.0  614.560      0.3555  16.9907     0.0   56.9824
11344  11291.0  614.960      0.3687  17.0039     0.0   57.0671
11354  11301.0  615.360      0.3821  17.0172     0.0   57.1529
11364  11311.0  615.760      0.3955  17.0307     0.0   57.2370
11374  11321.0  616.160      0.4090  17.0441     0.0   57.3177
11384  11331.0  616.560      0.4221  17.0573     0.0   57.4001
11394  11341.0  616.960      0.4356  17.0707     0.0   57.4809
11404  11351.0  617.360      0.4489  17.0841     0.0   57.5600
11414  11361.0  617.760      0.4621  17.0973     0.0   57.6370
11424  11371.0  618.160      0.4755  17.1107     0.0   57.7141
11434  11381.0  618.560      0.4886  17.1238     0.0   57.7939
11444  11391.0  618.960      0.5022  17.1373     0.0   57.8691
11454  11401.0  619.360      0.5155  17.1507     0.0   57.9474
11464  11411.0  619.760      0.5288  17.1640     0.0   58.0211
11474  11421.0  620.160      0.5421  17.1773     0.0   58.0959
11484  11431.0  620.560      0.5553  17.1905     0.0   58.1681
11494  11441.0  620.960      0.5688  17.2040     0.0   58.2425
11504  11451.0  621.360      0.5821  17.2173     0.0   58.3128
11514  11461.0  621.760      0.5955  17.2307     0.0   58.3843
11524  11471.0  622.160      0.6086  17.2438     0.0   58.4526
11534  11481.0  622.560      0.6220  17.2572     0.0   58.5233
11544  11491.0  622.960      0.6353  17.2705     0.0   58.5930
11554  11501.0  623.360      0.6486  17.2838     0.0   58.6590
11564  11511.0  623.760      0.6621  17.2973     0.0   58.7282
11574  11521.0  624.160      0.6753  17.3105     0.0   58.7920
11584  11531.0  624.560      0.6886  17.3238     0.0   58.8594
11594  11541.0  624.960      0.7020  17.3372     0.0   58.9226
11604  11551.0  625.360      0.7153  17.3505     0.0   58.9898
11614  11561.0  625.760      0.7288  17.3640     0.0   59.0535
11624  11571.0  626.160      0.7420  17.3772     0.0   59.1174
11634  11581.0  626.560      0.7552  17.3904     0.0   59.1766
11644  11591.0  626.960      0.7687  17.4039     0.0   59.2409
11654  11601.0  627.360      0.7820  17.4172     0.0   59.3011
11664  11611.0  627.760      0.7954  17.4305     0.0   59.3627
11674  11621.0  628.160      0.8087  17.4439     0.0   59.4213
11684  11631.0  628.560      0.8219  17.4571     0.0   59.4820
11694  11641.0  628.960      0.8354  17.4705     0.0   59.5391
11704  11651.0  629.360      0.8487  17.4839     0.0   59.5999
11714  11661.0  629.760      0.8619  17.4971     0.0   59.6565
11724  11671.0  630.160      0.8753  17.5105     0.0   59.7129
11734  11681.0  630.560      0.8886  17.5238     0.0   59.7713
11744  11691.0  630.960      0.9020  17.5371     0.0   59.8296
11754  11701.0  631.360      0.9155  17.5506     0.0   59.8864
11764  11711.0  631.760      0.9287  17.5639     0.0   59.9422
11774  11721.0  632.160      0.9419  17.5771     0.0   59.9992
11784  11731.0  632.560      0.9555  17.5906     0.0   60.0555
11794  11741.0  632.960      0.9689  17.6041     0.0   60.1118
11804  11751.0  633.360      0.9822  17.6174     0.0   60.1626
11814  11761.0  633.760      0.9954  17.6306     0.0   60.2137
11824  11771.0  634.160      1.0088  17.6439     0.0   60.2659
11834  11781.0  634.560      1.0220  17.6572     0.0   60.3123
11844  11791.0  634.960      1.0354  17.6705     0.0   60.3621
11854  11801.0  635.360      1.0487  17.6839     0.0   60.4123
11864  11811.0  635.760      1.0621  17.6973     0.0   60.4629
11874  11821.0  636.160      1.0753  17.7104     0.0   60.5133
11884  11831.0  636.560      1.0886  17.7238     0.0   60.5585
11894  11841.0  636.960      1.1020  17.7371     0.0   60.6082
11904  11851.0  637.360      1.1152  17.7503     0.0   60.6532
11914  11861.0  637.760      1.1287  17.7639     0.0   60.6996
11924  11871.0  638.160      1.1420  17.7772     0.0   60.7479
11934  11881.0  638.560      1.1554  17.7906     0.0   60.7953
11944  11891.0  638.960      1.1687  17.8039     0.0   60.8382
11954  11901.0  639.360      1.1819  17.8170     0.0   60.8838
11964  11911.0  639.760      1.1951  17.8303     0.0   60.9273
11974  11921.0  640.160      1.2085  17.8436     0.0   60.9753
11984  11931.0  640.560      1.2220  17.8572     0.0   61.0193
11994  11941.0  640.960      1.2356  17.8708     0.0   61.0637
12004  11951.0  641.360      1.2485  17.8837     0.0   61.1083
12014  11961.0  641.760      1.2620  17.8972     0.0   61.1530
12024  11971.0  642.160      1.2753  17.9105     0.0   61.1967
12034  11981.0  642.560      1.2887  17.9239     0.0   61.2386
12044  11991.0  642.960      1.3019  17.9371     0.0   61.2825
12054  12001.0  643.360      1.3152  17.9504     0.0   61.3227
12064  12011.0  643.760      1.3286  17.9638     0.0   61.3649
12074  12021.0  644.160      1.3421  17.9772     0.0   61.4099
12084  12031.0  644.560      1.3554  17.9906     0.0   61.4540
12094  12041.0  644.960      1.3687  18.0039     0.0   61.4926
12104  12051.0  645.360      1.3821  18.0173     0.0   61.5366
12114  12061.0  645.760      1.3952  18.0304     0.0   61.5735
12124  12071.0  646.160      1.4087  18.0439     0.0   61.6167
12134  12081.0  646.560      1.4220  18.0571     0.0   61.6593
12144  12091.0  646.960      1.4354  18.0706     0.0   61.7001
12154  12101.0  647.360      1.4487  18.0838     0.0   61.7389
12164  12111.0  647.760      1.4620  18.0972     0.0   61.7779
12174  12121.0  648.160      1.4751  18.1103     0.0   61.8145
12184  12131.0  648.560      1.4885  18.1237     0.0   61.8548
12194  12141.0  648.960      1.5019  18.1371     0.0   61.8914
12204  12151.0  649.360      1.5152  18.1503     0.0   61.9301
12214  12161.0  649.760      1.5286  18.1638     0.0   61.9687
12224  12171.0  650.160      1.5418  18.1770     0.0   62.0052
12234  12181.0  650.560      1.5553  18.1904     0.0   62.0410
12244  12191.0  650.960      1.5686  18.2037     0.0   62.0796
12254  12201.0  651.360      1.5819  18.2170     0.0   62.1168
12264  12211.0  651.760      1.5953  18.2304     0.0   62.1576
12274  12221.0  652.160      1.6086  18.2437     0.0   62.1903
12284  12231.0  652.560      1.6220  18.2571     0.0   62.2263
12294  12241.0  652.960      1.6352  18.2704     0.0   62.2627
12304  12251.0  653.360      1.6486  18.2837     0.0   62.2951
12314  12261.0  653.760      1.6618  18.2970     0.0   62.3293
12324  12271.0  654.160      1.6752  18.3104     0.0   62.3646
12334  12281.0  654.560      1.6887  18.3238     0.0   62.3949
12344  12291.0  654.960      1.7020  18.3371     0.0   62.4289
12354  12301.0  655.360      1.7151  18.3502     0.0   62.4611
12364  12311.0  655.760      1.7284  18.3635     0.0   62.4922
12374  12321.0  656.160      1.7419  18.3771     0.0   62.5244
12384  12331.0  656.560      1.7552  18.3904     0.0   62.5545
12394  12341.0  656.960      1.7687  18.4039     0.0   62.5832
12404  12351.0  657.360      1.7819  18.4171     0.0   62.6143
12414  12361.0  657.760      1.7953  18.4305     0.0   62.6468
12424  12371.0  658.160      1.8085  18.4437     0.0   62.6765
12434  12381.0  658.560      1.8220  18.4572     0.0   62.7076
12444  12391.0  658.960      1.8351  18.4703     0.0   62.7400
12454  12401.0  659.360      1.8486  18.4838     0.0   62.7624
12464  12411.0  659.760      1.8619  18.4971     0.0   62.7958
12474  12421.0  660.160      1.8755  18.5106     0.0   62.8227
12484  12431.0  660.560      1.8886  18.5238     0.0   62.8523
12494  12441.0  660.960      1.9018  18.5369     0.0   62.8796
12504  12451.0  661.360      1.9152  18.5504     0.0   62.9079
12514  12461.0  661.760      1.9285  18.5637     0.0   62.9352
12524  12471.0  662.160      1.9418  18.5770     0.0   62.9616
12534  12481.0  662.560      1.9554  18.5906     0.0   62.9899
12544  12491.0  662.960      1.9686  18.6037     0.0   63.0152
12554  12501.0  663.360      1.9819  18.6171     0.0   63.0470
12564  12511.0  663.760      1.9954  18.6305     0.0   63.0721
12574  12521.0  664.160      2.0087  18.6439     0.0   63.0982
12584  12531.0  664.560      2.0222  18.6574     0.0   63.1284
12594  12541.0  664.960      2.0352  18.6704     0.0   63.1536
12604  12551.0  665.360      2.0485  18.6837     0.0   63.1828
12614  12561.0  665.760      2.0620  18.6972     0.0   63.2097
12624  12571.0  666.160      2.0754  18.7106     0.0   63.2385
12634  12581.0  666.560      2.0888  18.7240     0.0   63.2669
12644  12591.0  666.960      2.1020  18.7372     0.0   63.2916
12654  12601.0  667.360      2.1156  18.7508     0.0   63.3179
12664  12611.0  667.760      2.1289  18.7641     0.0   63.3376
12674  12621.0  668.160      2.1420  18.7772     0.0   63.3601
12684  12631.0  668.560      2.1555  18.7906     0.0   63.3847
12694  12641.0  668.960      2.1688  18.8040     0.0   63.4078
12704  12651.0  669.360      2.1823  18.8174     0.0   63.4310
12714  12661.0  669.760      2.1954  18.8306     0.0   63.4529
12724  12671.0  670.160      2.2087  18.8439     0.0   63.4759
12734  12681.0  670.560      2.2222  18.8574     0.0   63.5011
12744  12691.0  670.960      2.2354  18.8706     0.0   63.5234
12754  12701.0  671.360      2.2487  18.8839     0.0   63.5444
12764  12711.0  671.760      2.2618  18.8970     0.0   63.5687
12774  12721.0  672.160      2.2752  18.9104     0.0   63.5941
12784  12731.0  672.560      2.2887  18.9239     0.0   63.6153
12794  12741.0  672.960      2.3021  18.9373     0.0   63.6354
12804  12751.0  673.360      2.3154  18.9506     0.0   63.6602
12814  12761.0  673.760      2.3288  18.9640     0.0   63.6791
12824  12771.0  674.160      2.3421  18.9773     0.0   63.7008
12834  12781.0  674.560      2.3554  18.9906     0.0   63.7265
12844  12791.0  674.960      2.3689  19.0041     0.0   63.7478
12854  12801.0  675.360      2.3820  19.0172     0.0   63.7662
12864  12811.0  675.760      2.3954  19.0305     0.0   63.7906
12874  12821.0  676.160      2.4085  19.0436     0.0   63.8163
12884  12831.0  676.560      2.4220  19.0572     0.0   63.8376
12894  12841.0  676.960      2.4355  19.0707     0.0   63.8593
12904  12851.0  677.360      2.4489  19.0841     0.0   63.8820
12914  12861.0  677.760      2.4620  19.0972     0.0   63.9027
12924  12871.0  678.160      2.4753  19.1104     0.0   63.9288
12934  12881.0  678.560      2.4886  19.1238     0.0   63.9498
12944  12891.0  678.960      2.5021  19.1373     0.0   63.9739
12954  12901.0  679.360      2.5156  19.1507     0.0   63.9942
12964  12911.0  679.760      2.5287  19.1639     0.0   64.0136
12974  12921.0  680.160      2.5420  19.1772     0.0   64.0393
12984  12931.0  680.560      2.5553  19.1905     0.0   64.0611
12994  12941.0  680.960      2.5685  19.2037     0.0   64.0799
13004  12951.0  681.360      2.5818  19.2170     0.0   64.1071
13014  12961.0  681.760      2.5953  19.2305     0.0   64.1301
13024  12971.0  682.160      2.6087  19.2438     0.0   64.1522
13034  12981.0  682.560      2.6220  19.2572     0.0   64.1747
13044  12991.0  682.960      2.6355  19.2707     0.0   64.1989
13054  13001.0  683.360      2.6485  19.2837     0.0   64.2247