         Num  Time(s)  PosAbs(mm)  Pos(mm)  Pos(%)  Load(kN)
0        1.0    0.005    -48.5058  -0.0003     0.0    0.0932
10      11.0    2.005    -48.3700   0.1355     0.0    0.1089
20      21.0    4.005    -48.2391   0.2664     0.0    0.1199
30      31.0    6.005    -48.1067   0.3988     0.0    0.1324
40      41.0    8.005    -47.9742   0.5313     0.0    0.1475
50      51.0   10.005    -47.8405   0.6650     0.0    0.1660
60      61.0   12.005    -47.7054   0.8001     0.0    0.1817
70      71.0   14.005    -47.5718   0.9337     0.0    0.1985
80      81.0   16.005    -47.4385   1.0670     0.0    0.2178
90      91.0   18.005    -47.3087   1.1968     0.0    0.2347
100    101.0   20.005    -47.1720   1.3335     0.0    0.2502
110    111.0   22.005    -47.0388   1.4667     0.0    0.2712
120    121.0   24.005    -46.9068   1.5987     0.0    0.2942
130    131.0   26.005    -46.7720   1.7335     0.0    0.3148
140    141.0   28.005    -46.6352   1.8703     0.0    0.3432
150    151.0   30.005    -46.5029   2.0026     0.0    0.3676
160    161.0   32.005    -46.3740   2.1315     0.0    0.4060
170    171.0   34.005    -46.2379   2.2676     0.0    0.4471
180    181.0   36.005    -46.1052   2.4003     0.0    0.4815
190    191.0   38.005    -45.9718   2.5337     0.0    0.5263
200    201.0   40.005    -45.8396   2.6659     0.0    0.5796
210    211.0   42.005    -45.7066   2.7989     0.0    0.6379
220    221.0   44.005    -45.5731   2.9324     0.0    0.6967
230    231.0   46.005    -45.4376   3.0679     0.0    0.7759
240    241.0   48.005    -45.3056   3.1999     0.0    0.8476
250    251.0   50.005    -45.1724   3.3331     0.0    0.9331
260    261.0   52.005    -45.0400   3.4655     0.0    1.0257
270    271.0   54.005    -44.9070   3.5985     0.0    1.1384
280    281.0   56.005    -44.7736   3.7319     0.0    1.2584
290    291.0   58.005    -44.6417   3.8638     0.0    1.3878
300    301.0   60.005    -44.5051   4.0004     0.0    1.5307
310    311.0   62.005    -44.3736   4.1319     0.0    1.6841
320    321.0   64.005    -44.2397   4.2658     0.0    1.8571
330    331.0   66.005    -44.1040   4.4015     0.0    2.0344
340    341.0   68.005    -43.9738   4.5317     0.0    2.2309
350    351.0   70.005    -43.8392   4.6663     0.0    2.4502
360    361.0   72.005    -43.7062   4.7993     0.0    2.6491
370    371.0   74.005    -43.5723   4.9332     0.0    2.7014
380    381.0   76.005    -43.4384   5.0671     0.0    2.6745
390    391.0   78.005    -43.3055   5.2000     0.0    2.7757
400    401.0   80.005    -43.1731   5.3324     0.0    2.8101
410    411.0   82.005    -43.0382   5.4673     0.0    2.8657
420    421.0   84.005    -42.9054   5.6001     0.0    2.9027
430    431.0   86.005    -42.7736   5.7319     0.0    2.9510
440    441.0   88.005    -42.6377   5.8678     0.0    3.0133
450    451.0   90.005    -42.5064   5.9991     0.0    3.1364
460    461.0   92.005    -42.3734   6.1321     0.0    3.2348
470    471.0   94.005    -42.2411   6.2644     0.0    3.3052
480    481.0   96.005    -42.1071   6.3984     0.0    3.3864
490    491.0   98.005    -41.9745   6.5310     0.0    3.5669
500    501.0  100.005    -41.8391   6.6664     0.0    3.7045
510    511.0  102.005    -41.7049   6.8006     0.0    3.6891
520    521.0  104.005    -41.5699   6.9356     0.0    3.9360
536    531.0  104.740    -41.5644   6.9411     0.0    3.8398
546    541.0  105.140    -41.5629   6.9426     0.0    3.8392
556    551.0  105.540    -41.5646   6.9409     0.0    3.8185
566    561.0  105.940    -41.5637   6.9418     0.0    3.7961
576    571.0  106.340    -41.5624   6.9431     0.0    3.7846
586    581.0  106.740    -41.5643   6.9412     0.0    3.7739
596    591.0  107.140    -41.5639   6.9416     0.0    3.7599
606    601.0  107.540    -41.5655   6.9400     0.0    3.7312
616    611.0  107.940    -41.5646   6.9409     0.0    3.7079
626    621.0  108.340    -41.5622   6.9433     0.0    3.7129
636    631.0  108.740    -41.5642   6.9413     0.0    3.6928
647    641.0  109.140    -41.5626   6.9429     0.0    3.6888
657    651.0  109.540    -41.5662   6.9393     0.0    3.6686
667    661.0  109.940    -41.5644   6.9411     0.0    3.6814
677    671.0  110.340    -41.5645   6.9410     0.0    3.6699
687    681.0  110.740    -41.5623   6.9431     0.0    3.6724
697    691.0  111.140    -41.5629   6.9426     0.0    3.6649
707    701.0  111.540    -41.5631   6.9424     0.0    3.6273
717    711.0  111.940    -41.5648   6.9407     0.0    3.6261
727    721.0  112.340    -41.5632   6.9422     0.0    3.6545
737    731.0  112.740    -41.5635   6.9420     0.0    3.6378
747    741.0  113.140    -41.5617   6.9438     0.0    3.6231
757    751.0  113.540    -41.5615   6.9440     0.0    3.6213
767    761.0  113.940    -41.5631   6.9424     0.0    3.6174
777    771.0  114.340    -41.5629   6.9426     0.0    3.6118
787    781.0  114.740    -41.5636   6.9419     0.0    3.6156
797    791.0  115.140    -41.5639   6.9416     0.0    3.6052
807    801.0  115.540    -41.5641   6.9414     0.0    3.5885
817    811.0  115.940    -41.5624   6.9431     0.0    3.5993
827    821.0  116.340    -41.5633   6.9422     0.0    3.5960
837    831.0  116.740    -41.5625   6.9430     0.0    3.6057
847    841.0  117.140    -41.5640   6.9415     0.0    3.5980
857    851.0  117.540    -41.5641   6.9414     0.0    3.5969
867    861.0  117.940    -41.5641   6.9414     0.0    3.5977
877    871.0  118.340    -41.5643   6.9412     0.0    3.5777
887    881.0  118.740    -41.5652   6.9403     0.0    3.5719
897    891.0  119.140    -41.5649   6.9406     0.0    3.5762
907    901.0  119.540    -41.5638   6.9417     0.0    3.5857
917    911.0  119.940    -41.5639   6.9416     0.0    3.5959
927    921.0  120.340    -41.5613   6.9442     0.0    3.5875
937    931.0  120.740    -41.5646   6.9409     0.0    3.5985
947    941.0  121.140    -41.5630   6.9425     0.0    3.5879
957    951.0  121.540    -41.5628   6.9427     0.0    3.5613
967    961.0  121.940    -41.5609   6.9446     0.0    3.5656
977    971.0  122.340    -41.5640   6.9414     0.0    3.5813
987    981.0  122.740    -41.5651   6.9404     0.0    3.5632
997    991.0  123.140    -41.5626   6.9429     0.0    3.5406
1007  1001.0  123.540    -41.5632   6.9423     0.0    3.5402
1017  1011.0  123.940    -41.5633   6.9422     0.0    3.5190
1027  1021.0  124.340    -41.5614   6.9441     0.0    3.5246
1037  1031.0  124.740    -41.5617   6.9438     0.0    3.5194
1047  1041.0  125.140    -41.5626   6.9429     0.0    3.5225
1057  1051.0  125.540    -41.5656   6.9399     0.0    3.5084
1067  1061.0  125.940    -41.5634   6.9421     0.0    3.5004
1077  1071.0  126.340    -41.5638   6.9417     0.0    3.4969
1087  1081.0  126.740    -41.5638   6.9417     0.0    3.5249
1097  1091.0  127.140    -41.5643   6.9412     0.0    3.5236
1107  1101.0  127.540    -41.5634   6.9421     0.0    3.5098
1117  1111.0  127.940    -41.5623   6.9432     0.0    3.5186
1127  1121.0  128.340    -41.5644   6.9411     0.0    3.5290
1137  1131.0  128.740    -41.5647   6.9408     0.0    3.5261
1147  1141.0  129.140    -41.5619   6.9436     0.0    3.5084
1157  1151.0  129.540    -41.5649   6.9406     0.0    3.5016
1167  1161.0  129.940    -41.5622   6.9433     0.0    3.5155
1177  1171.0  130.340    -41.5633   6.9422     0.0    3.4901
1187  1181.0  130.740    -41.5667   6.9388     0.0    3.5104
1197  1191.0  131.140    -41.5637   6.9418     0.0    3.4756
1207  1201.0  131.540    -41.5636   6.9419     0.0    3.5233
1217  1211.0  131.940    -41.5646   6.9409     0.0    3.5116
1227  1221.0  132.340    -41.5620   6.9435     0.0    3.5275
1237  1231.0  132.740    -41.5626   6.9429     0.0    3.5169
1247  1241.0  133.140    -41.5633   6.9422     0.0    3.5366
1257  1251.0  133.540    -41.5632   6.9423     0.0    3.5161
1267  1261.0  133.940    -41.5655   6.9400     0.0    3.5232
1277  1271.0  134.340    -41.5635   6.9420     0.0    3.5211
1287  1281.0  134.740    -41.5644   6.9411     0.0    3.5097
1297  1291.0  135.140    -41.5649   6.9405     0.0    3.5072
1307  1301.0  135.540    -41.5632   6.9423     0.0    3.5280
1317  1311.0  135.940    -41.5632   6.9423     0.0    3.5074
1327  1321.0  136.340    -41.5633   6.9422     0.0    3.5007
1337  1331.0  136.740    -41.5637   6.9418     0.0    3.5075
1347  1341.0  137.140    -41.5628   6.9427     0.0    3.5097
1357  1351.0  137.540    -41.5636   6.9419     0.0    3.5037
1367  1361.0  137.940    -41.5634   6.9421     0.0    3.5134
1377  1371.0  138.340    -41.5626   6.9429     0.0    3.5112
1387  1381.0  138.740    -41.5639   6.9416     0.0    3.5187
1397  1391.0  139.140    -41.5625   6.9430     0.0    3.5232
1407  1401.0  139.540    -41.5637   6.9418     0.0    3.5104
1417  1411.0  139.940    -41.5633   6.9422     0.0    3.5052
1427  1421.0  140.340    -41.5620   6.9435     0.0    3.4992
1437  1431.0  140.740    -41.5648   6.9407     0.0    3.4999
1447  1441.0  141.140    -41.5659   6.9396     0.0    3.4967
1457  1451.0  141.540    -41.5648   6.9407     0.0    3.5049
1467  1461.0  141.940    -41.5653   6.9402     0.0    3.4924
1477  1471.0  142.340    -41.5658   6.9397     0.0    3.4677
1487  1481.0  142.740    -41.5647   6.9408     0.0    3.4823
1497  1491.0  143.140    -41.5651   6.9404     0.0    3.4806
1507  1501.0  143.540    -41.5643   6.9412     0.0    3.5064
1517  1511.0  143.940    -41.5614   6.9441     0.0    3.4992
1527  1521.0  144.340    -41.5617   6.9438     0.0    3.4869
1537  1531.0  144.740    -41.5642   6.9413     0.0    3.4719
1547  1541.0  145.140    -41.5649   6.9406     0.0    3.4818
1557  1551.0  145.540    -41.5634   6.9421     0.0    3.4829
1567  1561.0  145.940    -41.5622   6.9433     0.0    3.4681
1577  1571.0  146.340    -41.5660   6.9395     0.0    3.5032
1587  1581.0  146.740    -41.5641   6.9414     0.0    3.4878
1597  1591.0  147.140    -41.5650   6.9405     0.0    3.4783
1607  1601.0  147.540    -41.5616   6.9439     0.0    3.5028
1617  1611.0  147.940    -41.5680   6.9375     0.0    3.4972
1627  1621.0  148.340    -41.5620   6.9434     0.0    3.5047
1637  1631.0  148.740    -41.5626   6.9429     0.0    3.4856
1647  1641.0  149.140    -41.5657   6.9398     0.0    3.4828
1657  1651.0  149.540    -41.5634   6.9421     0.0    3.4858
1667  1661.0  149.940    -41.5652   6.9403     0.0    3.4663
1677  1671.0  150.340    -41.5621   6.9434     0.0    3.4710
1687  1681.0  150.740    -41.5634   6.9421     0.0    3.4790
1697  1691.0  151.140    -41.5634   6.9421     0.0    3.4680
1707  1701.0  151.540    -41.5640   6.9415     0.0    3.4652
1717  1711.0  151.940    -41.5631   6.9424     0.0    3.4688
1727  1721.0  152.340    -41.5634   6.9421     0.0    3.4628
1737  1731.0  152.740    -41.5644   6.9410     0.0    3.4669
1747  1741.0  153.140    -41.5620   6.9434     0.0    3.4695
1757  1751.0  153.540    -41.5610   6.9445     0.0    3.4791
1767  1761.0  153.940    -41.5637   6.9418     0.0    3.4446
1777  1771.0  154.340    -41.5635   6.9420     0.0    3.4595
1787  1781.0  154.740    -41.5654   6.9401     0.0    3.4467
1797  1791.0  155.140    -41.5654   6.9401     0.0    3.4655
1807  1801.0  155.540    -41.5641   6.9414     0.0    3.4664
1817  1811.0  155.940    -41.5639   6.9416     0.0    3.4723
1827  1821.0  156.340    -41.5652   6.9403     0.0    3.4524
1837  1831.0  156.740    -41.5638   6.9417     0.0    3.4775
1847  1841.0  157.140    -41.5637   6.9417     0.0    3.4720
1857  1851.0  157.540    -41.5645   6.9410     0.0    3.4708
1867  1861.0  157.940    -41.5636   6.9419     0.0    3.4617
1877  1871.0  158.340    -41.5640   6.9415     0.0    3.4712
1887  1881.0  158.740    -41.5638   6.9417     0.0    3.4618
1897  1891.0  159.140    -41.5633   6.9422     0.0    3.4619
1907  1901.0  159.540    -41.5613   6.9442     0.0    3.4455
1917  1911.0  159.940    -41.5650   6.9405     0.0    3.4529
1927  1921.0  160.340    -41.5647   6.9408     0.0    3.4564
1937  1931.0  160.740    -41.5644   6.9410     0.0    3.4586
1947  1941.0  161.140    -41.5631   6.9424     0.0    3.4319
1957  1951.0  161.540    -41.5639   6.9416     0.0    3.4650
1967  1961.0  161.940    -41.5657   6.9398     0.0    3.4664
1977  1971.0  162.340    -41.5626   6.9429     0.0    3.4497
1987  1981.0  162.740    -41.5619   6.9436     0.0    3.4453
1997  1991.0  163.140    -41.5634   6.9421     0.0    3.4540
2007  2001.0  163.540    -41.5640   6.9415     0.0    3.4457
2017  2011.0  163.940    -41.5646   6.9409     0.0    3.4497
2027  2021.0  164.340    -41.5648   6.9407     0.0    3.4606
2037  2031.0  164.740    -41.5627   6.9428     0.0    3.4528
2047  2041.0  165.140    -41.5618   6.9437     0.0    3.4510
2057  2051.0  165.540    -41.5643   6.9412     0.0    3.4522
2067  2061.0  165.940    -41.5646   6.9409     0.0    3.4363
2077  2071.0  166.340    -41.5653   6.9402     0.0    3.4361
2087  2081.0  166.740    -41.5623   6.9432     0.0    3.4498
2097  2091.0  167.140    -41.5626   6.9429     0.0    3.4412
2114  2101.0  167.620    -41.5535   6.9520     0.0    3.4890
2124  2111.0  168.020    -41.5302   6.9753     0.0    3.6731
2134  2121.0  168.420    -41.5007   7.0048     0.0    3.8166
2144  2131.0  168.820    -41.4722   7.0333     0.0    3.9034
2154  2141.0  169.220    -41.4475   7.0580     0.0    3.9768
2164  2151.0  169.620    -41.4199   7.0856     0.0    4.0673
2174  2161.0  170.020    -41.3936   7.1119     0.0    4.1585
2184  2171.0  170.420    -41.3677   7.1378     0.0    4.2317
2194  2181.0  170.820    -41.3407   7.1648     0.0    4.2979
2204  2191.0  171.220    -41.3161   7.1894     0.0    4.3315
2214  2201.0  171.620    -41.2884   7.2171     0.0    4.3420
2224  2211.0  172.020    -41.2613   7.2442     0.0    4.3595
2234  2221.0  172.420    -41.2351   7.2704     0.0    4.4002
2244  2231.0  172.820    -41.2064   7.2991     0.0    4.4199
2254  2241.0  173.220    -41.1801   7.3254     0.0    4.4739
2264  2251.0  173.620    -41.1539   7.3516     0.0    4.5056
2274  2261.0  174.020    -41.1269   7.3786     0.0    4.5586
2284  2271.0  174.420    -41.1024   7.4031     0.0    4.6299
2294  2281.0  174.820    -41.0721   7.4334     0.0    4.6688
2304  2291.0  175.220    -41.0472   7.4583     0.0    4.6854
2314  2301.0  175.620    -41.0210   7.4845     0.0    4.7174
2324  2311.0  176.020    -40.9942   7.5113     0.0    4.7478
2334  2321.0  176.420    -40.9681   7.5374     0.0    4.7680
2344  2331.0  176.820    -40.9418   7.5637     0.0    4.7802
2354  2341.0  177.220    -40.9143   7.5912     0.0    4.8060
2364  2351.0  177.620    -40.8853   7.6202     0.0    4.8332
2374  2361.0  178.020    -40.8603   7.6452     0.0    4.8467
2384  2371.0  178.420    -40.8338   7.6717     0.0    4.8604
2394  2381.0  178.820    -40.8051   7.7004     0.0    4.8762
2404  2391.0  179.220    -40.7813   7.7242     0.0    4.9118
2414  2401.0  179.620    -40.7534   7.7521     0.0    4.9182
2424  2411.0  180.020    -40.7276   7.7779     0.0    4.9436
2434  2421.0  180.420    -40.7007   7.8048     0.0    4.9593
2444  2431.0  180.820    -40.6747   7.8308     0.0    4.9818
2454  2441.0  181.220    -40.6476   7.8579     0.0    5.0013
2464  2451.0  181.620    -40.6214   7.8841     0.0    5.0451
2474  2461.0  182.020    -40.5949   7.9106     0.0    5.0548
2484  2471.0  182.420    -40.5669   7.9386     0.0    5.0938
2494  2481.0  182.820    -40.5421   7.9634     0.0    5.1244
2504  2491.0  183.220    -40.5163   7.9892     0.0    5.1341
2514  2501.0  183.620    -40.4890   8.0165     0.0    5.1499
2524  2511.0  184.020    -40.4605   8.0450     0.0    5.1638
2534  2521.0  184.420    -40.4353   8.0702     0.0    5.2019
2544  2531.0  184.820    -40.4050   8.1005     0.0    5.2301
2554  2541.0  185.220    -40.3808   8.1246     0.0    5.2471
2564  2551.0  185.620    -40.3541   8.1514     0.0    5.2719
2574  2561.0  186.020    -40.3279   8.1776     0.0    5.2862
2584  2571.0  186.420    -40.3008   8.2047     0.0    5.3000
2594  2581.0  186.820    -40.2733   8.2322     0.0    5.3295
2604  2591.0  187.220    -40.2484   8.2571     0.0    5.3353
2614  2601.0  187.620    -40.2200   8.2855     0.0    5.3455
2624  2611.0  188.020    -40.1942   8.3113     0.0    5.3997
2634  2621.0  188.420    -40.1676   8.3379     0.0    5.4135
2644  2631.0  188.820    -40.1403   8.3652     0.0    5.4378
2654  2641.0  189.220    -40.1143   8.3912     0.0    5.4414
2664  2651.0  189.620    -40.0893   8.4162     0.0    5.4558
2674  2661.0  190.020    -40.0600   8.4455     0.0    5.4859
2684  2671.0  190.420    -40.0358   8.4697     0.0    5.5016
2694  2681.0  190.820    -40.0085   8.4970     0.0    5.5208
2704  2691.0  191.220    -39.9815   8.5239     0.0    5.5392
2714  2701.0  191.620    -39.9543   8.5512     0.0    5.5649
2724  2711.0  192.020    -39.9274   8.5781     0.0    5.5854
2734  2721.0  192.420    -39.9018   8.6037     0.0    5.6006
2744  2731.0  192.820    -39.8715   8.6340     0.0    5.6274
2754  2741.0  193.220    -39.8492   8.6563     0.0    5.6354
2764  2751.0  193.620    -39.8210   8.6845     0.0    5.6746
2774  2761.0  194.020    -39.7932   8.7123     0.0    5.7698
2784  2771.0  194.420    -39.7666   8.7389     0.0    5.9153
2794  2781.0  194.820    -39.7397   8.7658     0.0    6.0361
2804  2791.0  195.220    -39.7150   8.7905     0.0    6.1289
2814  2801.0  195.620    -39.6881   8.8174     0.0    6.2481
2824  2811.0  196.020    -39.6617   8.8438     0.0    6.3524
2834  2821.0  196.420    -39.6342   8.8713     0.0    6.4748
2844  2831.0  196.820    -39.6079   8.8976     0.0    6.5849
2854  2841.0  197.220    -39.5816   8.9239     0.0    6.7054
2864  2851.0  197.620    -39.5543   8.9512     0.0    6.7955
2874  2861.0  198.020    -39.5286   8.9769     0.0    6.9184
2884  2871.0  198.420    -39.5019   9.0036     0.0    7.0317
2894  2881.0  198.820    -39.4742   9.0313     0.0    7.1373
2904  2891.0  199.220    -39.4487   9.0568     0.0    7.2269
2914  2901.0  199.620    -39.4210   9.0845     0.0    7.3677
2924  2911.0  200.020    -39.3944   9.1111     0.0    7.4880
2934  2921.0  200.420    -39.3692   9.1363     0.0    7.5764
2944  2931.0  200.820    -39.3425   9.1630     0.0    7.6799
2954  2941.0  201.220    -39.3136   9.1919     0.0    7.8281
2964  2951.0  201.620    -39.2860   9.2195     0.0    7.9522
2980  2961.0  202.030    -39.2870   9.2184     0.0    7.7481
2990  2971.0  202.430    -39.2868   9.2187     0.0    7.6952
3000  2981.0  202.830    -39.2881   9.2174     0.0    7.6538
3010  2991.0  203.230    -39.2879   9.2175     0.0    7.6369
3020  3001.0  203.630    -39.2881   9.2174     0.0    7.5608
3030  3011.0  204.030    -39.2892   9.2163     0.0    7.5550
3040  3021.0  204.430    -39.2890   9.2165     0.0    7.5070
3050  3031.0  204.830    -39.2868   9.2187     0.0    7.4687
3060  3041.0  205.230    -39.2877   9.2178     0.0    7.4564
3070  3051.0  205.630    -39.2873   9.2182     0.0    7.4322
3080  3061.0  206.030    -39.2869   9.2186     0.0    7.4228
3090  3071.0  206.430    -39.2875   9.2180     0.0    7.3691
3100  3081.0  206.830    -39.2866   9.2189     0.0    7.3682
3110  3091.0  207.230    -39.2881   9.2174     0.0    7.3590
3120  3101.0  207.630    -39.2888   9.2167     0.0    7.3618
3130  3111.0  208.030    -39.2857   9.2198     0.0    7.3520
3140  3121.0  208.430    -39.2874   9.2181     0.0    7.3110
3151  3131.0  208.830    -39.2867   9.2188     0.0    7.2903
3161  3141.0  209.230    -39.2863   9.2192     0.0    7.2852
3171  3151.0  209.630    -39.2861   9.2194     0.0    7.2650
3181  3161.0  210.030    -39.2874   9.2181     0.0    7.2777
3191  3171.0  210.430    -39.2872   9.2183     0.0    7.2538
3201  3181.0  210.830    -39.2871   9.2184     0.0    7.2159
3211  3191.0  211.230    -39.2893   9.2162     0.0    7.2246
3221  3201.0  211.630    -39.2880   9.2175     0.0    7.1920
3231  3211.0  212.030    -39.2876   9.2179     0.0    7.2195
3241  3221.0  212.430    -39.2891   9.2164     0.0    7.1931
3251  3231.0  212.830    -39.2854   9.2201     0.0    7.1595
3261  3241.0  213.230    -39.2879   9.2176     0.0    7.1474
3271  3251.0  213.630    -39.2864   9.2191     0.0    7.1333
3281  3261.0  214.030    -39.2876   9.2178     0.0    7.2102
3291  3271.0  214.430    -39.2874   9.2181     0.0    7.1379
3301  3281.0  214.830    -39.2873   9.2182     0.0    7.0986
3311  3291.0  215.230    -39.2890   9.2165     0.0    7.0871
3321  3301.0  215.630    -39.2875   9.2180     0.0    7.0884
3331  3311.0  216.030    -39.2869   9.2186     0.0    7.0697
3341  3321.0  216.430    -39.2898   9.2157     0.0    7.0799
3351  3331.0  216.830    -39.2853   9.2202     0.0    7.0462
3361  3341.0  217.230    -39.2881   9.2174     0.0    7.0320
3371  3351.0  217.630    -39.2862   9.2193     0.0    7.0449
3381  3361.0  218.030    -39.2903   9.2152     0.0    7.0282
3391  3371.0  218.430    -39.2871   9.2184     0.0    7.0377
3401  3381.0  218.830    -39.2859   9.2195     0.0    7.0376
3411  3391.0  219.230    -39.2847   9.2208     0.0    7.0508
3421  3401.0  219.630    -39.2871   9.2184     0.0    7.0098
3431  3411.0  220.030    -39.2870   9.2185     0.0    7.0119
3441  3421.0  220.430    -39.2851   9.2204     0.0    7.0067
3451  3431.0  220.830    -39.2894   9.2161     0.0    7.0003
3461  3441.0  221.230    -39.2878   9.2177     0.0    7.0505
3471  3451.0  221.630    -39.2853   9.2202     0.0    7.0529
3481  3461.0  222.030    -39.2891   9.2164     0.0    7.0520
3491  3471.0  222.430    -39.2854   9.2201     0.0    7.0804
3501  3481.0  222.830    -39.2875   9.2180     0.0    7.0394
3511  3491.0  223.230    -39.2857   9.2198     0.0    6.9619
3521  3501.0  223.630    -39.2887   9.2168     0.0    6.9362
3531  3511.0  224.030    -39.2871   9.2183     0.0    6.9414
3541  3521.0  224.430    -39.2863   9.2192     0.0    6.9473
3551  3531.0  224.830    -39.2872   9.2183     0.0    6.9487
3561  3541.0  225.230    -39.2874   9.2181     0.0    6.9515
3571  3551.0  225.630    -39.2865   9.2190     0.0    6.9537
3581  3561.0  226.030    -39.2884   9.2171     0.0    6.9435
3591  3571.0  226.430    -39.2849   9.2206     0.0    6.9459
3601  3581.0  226.830    -39.2874   9.2181     0.0    6.9361
3611  3591.0  227.230    -39.2878   9.2177     0.0    6.9455
3621  3601.0  227.630    -39.2870   9.2185     0.0    6.9184
3631  3611.0  228.030    -39.2872   9.2183     0.0    6.8954
3641  3621.0  228.430    -39.2865   9.2190     0.0    6.9077
3651  3631.0  228.830    -39.2854   9.2201     0.0    6.9109
3668  3641.0  229.300    -39.2809   9.2246     0.0    6.9782
3678  3651.0  229.700    -39.2523   9.2532     0.0    7.3099
3688  3661.0  230.100    -39.2270   9.2785     0.0    7.5606
3698  3671.0  230.500    -39.2014   9.3041     0.0    7.8062
3708  3681.0  230.900    -39.1728   9.3327     0.0    8.0081
3718  3691.0  231.300    -39.1496   9.3559     0.0    8.1651
3728  3701.0  231.700    -39.1190   9.3865     0.0    8.3510
3738  3711.0  232.100    -39.0922   9.4133     0.0    8.5294
3748  3721.0  232.500    -39.0683   9.4372     0.0    8.6752
3758  3731.0  232.900    -39.0390   9.4665     0.0    8.8254
3768  3741.0  233.300    -39.0140   9.4914     0.0    8.9932
3778  3751.0  233.700    -38.9877   9.5178     0.0    9.1244
3788  3761.0  234.100    -38.9622   9.5433     0.0    9.2628
3798  3771.0  234.500    -38.9319   9.5735     0.0    9.3783
3808  3781.0  234.900    -38.9073   9.5982     0.0    9.4549
3818  3791.0  235.300    -38.8811   9.6244     0.0    9.5818
3828  3801.0  235.700    -38.8554   9.6501     0.0    9.7012
3838  3811.0  236.100    -38.8258   9.6797     0.0    9.7830
3848  3821.0  236.500    -38.8026   9.7029     0.0    9.8786
3858  3831.0  236.900    -38.7739   9.7316     0.0   10.0236
3868  3841.0  237.300    -38.7462   9.7593     0.0   10.1145
3878  3851.0  237.700    -38.7216   9.7839     0.0   10.2235
3888  3861.0  238.100    -38.6921   9.8134     0.0   10.3081
3898  3871.0  238.500    -38.6663   9.8392     0.0   10.4519
3908  3881.0  238.900    -38.6407   9.8648     0.0   10.5272
3918  3891.0  239.300    -38.6132   9.8923     0.0   10.6226
3928  3901.0  239.700    -38.5865   9.9190     0.0   10.7025
3938  3911.0  240.100    -38.5621   9.9434     0.0   10.7995
3948  3921.0  240.500    -38.5340   9.9715     0.0   10.9267
3958  3931.0  240.900    -38.5087   9.9968     0.0   11.0143
3968  3941.0  241.300    -38.4797  10.0258     0.0   11.1261
3978  3951.0  241.700    -38.4534  10.0521     0.0   11.2370
3988  3961.0  242.100    -38.4269  10.0786     0.0   11.3376
3998  3971.0  242.500    -38.4008  10.1047     0.0   11.4448
4008  3981.0  242.900    -38.3737  10.1318     0.0   11.5490
4018  3991.0  243.300    -38.3483  10.1572     0.0   11.6748
4028  4001.0  243.700    -38.3206  10.1849     0.0   11.7889
4038  4011.0  244.100    -38.2937  10.2118     0.0   11.9169
4048  4021.0  244.469    -38.2701  10.2354     0.0   12.0001
4064  4031.0  244.905    -38.2862  10.2193     0.0   11.6203
4074  4041.0  245.305    -38.2893  10.2161     0.0   11.5497
4084  4051.0  245.705    -38.2862  10.2193     0.0   11.4923
4094  4061.0  246.105    -38.2876  10.2179     0.0   11.4371
4104  4071.0  246.505    -38.2883  10.2172     0.0   11.4126
4114  4081.0  246.905    -38.2877  10.2178     0.0   11.3533
4124  4091.0  247.305    -38.2875  10.2180     0.0   11.3298
4134  4101.0  247.705    -38.2878  10.2177     0.0   11.2705
4144  4111.0  248.105    -38.2884  10.2171     0.0   11.2592
4154  4121.0  248.505    -38.2863  10.2192     0.0   11.2239
4164  4131.0  248.905    -38.2863  10.2192     0.0   11.2066
4174  4141.0  249.305    -38.2860  10.2195     0.0   11.1514
4184  4151.0  249.705    -38.2892  10.2163     0.0   11.1309
4194  4161.0  250.105    -38.2865  10.2190     0.0   11.1217
4204  4171.0  250.505    -38.2870  10.2185     0.0   11.1207
4214  4181.0  250.905    -38.2879  10.2176     0.0   11.0927
4224  4191.0  251.305    -38.2889  10.2166     0.0   11.0633
4234  4201.0  251.705    -38.2879  10.2176     0.0   11.0496
4245  4211.0  252.105    -38.2865  10.2190     0.0   11.0494
4255  4221.0  252.505    -38.2865  10.2190     0.0   11.0301
4265  4231.0  252.905    -38.2894  10.2161     0.0   10.9851
4275  4241.0  253.305    -38.2873  10.2182     0.0   10.9462
4285  4251.0  253.705    -38.2895  10.2160     0.0   10.9951
4295  4261.0  254.105    -38.2871  10.2183     0.0   10.9581
4305  4271.0  254.505    -38.2853  10.2202     0.0   10.9408
4315  4281.0  254.905    -38.2876  10.2179     0.0   10.9144
4325  4291.0  255.305    -38.2891  10.2164     0.0   10.8994
4335  4301.0  255.705    -38.2878  10.2177     0.0   10.9145
4345  4311.0  256.105    -38.2871  10.2184     0.0   10.9258
4355  4321.0  256.505    -38.2882  10.2173     0.0   10.9142
4365  4331.0  256.905    -38.2862  10.2193     0.0   10.8942
4375  4341.0  257.305    -38.2899  10.2156     0.0   10.8689
4385  4351.0  257.705    -38.2866  10.2189     0.0   10.8786
4395  4361.0  258.105    -38.2890  10.2164     0.0   10.8565
4405  4371.0  258.505    -38.2884  10.2171     0.0   10.8367
4415  4381.0  258.905    -38.2852  10.2203     0.0   10.8780
4425  4391.0  259.305    -38.2886  10.2169     0.0   10.7864
4435  4401.0  259.705    -38.2861  10.2194     0.0   10.7497
4445  4411.0  260.105    -38.2884  10.2170     0.0   10.7157
4455  4421.0  260.505    -38.2858  10.2197     0.0   10.7531
4465  4431.0  260.905    -38.2868  10.2187     0.0   10.7497
4475  4441.0  261.305    -38.2882  10.2173     0.0   10.7380
4485  4451.0  261.705    -38.2862  10.2193     0.0   10.7305
4495  4461.0  262.105    -38.2891  10.2164     0.0   10.7221
4505  4471.0  262.505    -38.2874  10.2181     0.0   10.7152
4515  4481.0  262.905    -38.2879  10.2176     0.0   10.7119
4525  4491.0  263.305    -38.2888  10.2167     0.0   10.6932
4535  4501.0  263.705    -38.2890  10.2165     0.0   10.7448
4545  4511.0  264.105    -38.2872  10.2183     0.0   10.7337
4555  4521.0  264.505    -38.2865  10.2190     0.0   10.7329
4565  4531.0  264.905    -38.2877  10.2178     0.0   10.7171
4575  4541.0  265.305    -38.2878  10.2177     0.0   10.7214
4585  4551.0  265.705    -38.2878  10.2177     0.0   10.7501
4595  4561.0  266.105    -38.2903  10.2152     0.0   10.7167
4605  4571.0  266.505    -38.2881  10.2174     0.0   10.7630
4615  4581.0  266.905    -38.2876  10.2179     0.0   10.7294
4625  4591.0  267.305    -38.2865  10.2190     0.0   10.7189
4635  4601.0  267.705    -38.2863  10.2192     0.0   10.6820
4645  4611.0  268.105    -38.2881  10.2174     0.0   10.6674
4655  4621.0  268.505    -38.2866  10.2189     0.0   10.7017
4665  4631.0  268.905    -38.2873  10.2182     0.0   10.6749
4675  4641.0  269.305    -38.2890  10.2165     0.0   10.7133
4685  4651.0  269.705    -38.2870  10.2185     0.0   10.6681
4695  4661.0  270.105    -38.2875  10.2180     0.0   10.7033
4705  4671.0  270.505    -38.2892  10.2163     0.0   10.6565
4715  4681.0  270.905    -38.2875  10.2180     0.0   10.5633
4725  4691.0  271.305    -38.2870  10.2185     0.0   10.5238
4735  4701.0  271.705    -38.2858  10.2197     0.0   10.5001
4745  4711.0  272.105    -38.2885  10.2170     0.0   10.5689
4755  4721.0  272.505    -38.2871  10.2184     0.0   10.5481
4765  4731.0  272.905    -38.2875  10.2180     0.0   10.5270
4775  4741.0  273.305    -38.2885  10.2170     0.0   10.5461
4785  4751.0  273.705    -38.2865  10.2190     0.0   10.5164
4795  4761.0  274.105    -38.2876  10.2179     0.0   10.5563
4805  4771.0  274.505    -38.2877  10.2178     0.0   10.5779
4815  4781.0  274.905    -38.2869  10.2186     0.0   10.5808
4825  4791.0  275.305    -38.2886  10.2169     0.0   10.5105
4835  4801.0  275.705    -38.2872  10.2183     0.0   10.5056
4845  4811.0  276.105    -38.2879  10.2176     0.0   10.5652
4855  4821.0  276.505    -38.2877  10.2178     0.0   10.5985
4865  4831.0  276.905    -38.2869  10.2186     0.0   10.6268
4882  4841.0  277.375    -38.2635  10.2420     0.0   10.9249
4892  4851.0  277.775    -38.2375  10.2680     0.0   11.2671
4902  4861.0  278.175    -38.2114  10.2941     0.0   11.5856
4912  4871.0  278.575    -38.1847  10.3208     0.0   11.8667
4922  4881.0  278.975    -38.1582  10.3473     0.0   12.0374
4932  4891.0  279.375    -38.1337  10.3718     0.0   12.2157
4942  4901.0  279.775    -38.1027  10.4028     0.0   12.3565
4952  4911.0  280.175    -38.0765  10.4290     0.0   12.4835
4962  4921.0  280.575    -38.0514  10.4541     0.0   12.5924
4972  4931.0  280.975    -38.0247  10.4808     0.0   12.7387
4982  4941.0  281.375    -37.9998  10.5057     0.0   12.9123
4992  4951.0  281.775    -37.9699  10.5356     0.0   13.0427
5002  4961.0  282.175    -37.9449  10.5606     0.0   13.1298
5012  4971.0  282.575    -37.9187  10.5868     0.0   13.2744
5022  4981.0  282.975    -37.8896  10.6159     0.0   13.4076
5032  4991.0  283.375    -37.8655  10.6400     0.0   13.5256
5042  5001.0  283.775    -37.8378  10.6677     0.0   13.7052
5052  5011.0  284.175    -37.8118  10.6937     0.0   13.8534
5062  5021.0  284.575    -37.7862  10.7193     0.0   13.9880
5072  5031.0  284.975    -37.7595  10.7460     0.0   14.0906
5082  5041.0  285.375    -37.7302  10.7753     0.0   14.2675
5092  5051.0  285.775    -37.7026  10.8029     0.0   14.4176
5102  5061.0  286.175    -37.6780  10.8275     0.0   14.5463
5112  5071.0  286.575    -37.6504  10.8551     0.0   14.7196
5122  5081.0  286.975    -37.6242  10.8813     0.0   14.8435
5132  5091.0  287.375    -37.5983  10.9072     0.0   14.9930
5142  5101.0  287.775    -37.5689  10.9366     0.0   15.1363
5152  5111.0  288.175    -37.5433  10.9622     0.0   15.2496
5162  5121.0  288.575    -37.5181  10.9874     0.0   15.4144
5172  5131.0  288.975    -37.4925  11.0130     0.0   15.5784
5182  5141.0  289.375    -37.4631  11.0424     0.0   15.7817
5192  5151.0  289.775    -37.4386  11.0669     0.0   15.9388
5208  5161.0  290.195    -37.4511  11.0544     0.0   15.6230
5218  5171.0  290.595    -37.4511  11.0544     0.0   15.5264
5228  5181.0  290.995    -37.4537  11.0518     0.0   15.4238
5238  5191.0  291.395    -37.4505  11.0550     0.0   15.3673
5248  5201.0  291.795    -37.4492  11.0563     0.0   15.3181
5258  5211.0  292.195    -37.4509  11.0546     0.0   15.2663
5268  5221.0  292.595    -37.4504  11.0551     0.0   15.2297
5278  5231.0  292.995    -37.4499  11.0556     0.0   15.1807
5288  5241.0  293.395    -37.4512  11.0543     0.0   15.1553
5298  5251.0  293.795    -37.4510  11.0545     0.0   15.1326
5308  5261.0  294.195    -37.4508  11.0547     0.0   15.1081
5318  5271.0  294.595    -37.4510  11.0545     0.0   14.9807
5328  5281.0  294.995    -37.4520  11.0535     0.0   14.9679
5338  5291.0  295.395    -37.4487  11.0568     0.0   15.0555
5348  5301.0  295.795    -37.4501  11.0554     0.0   14.9802
5359  5311.0  296.195    -37.4538  11.0516     0.0   14.9356
5369  5321.0  296.595    -37.4507  11.0548     0.0   14.8646
5379  5331.0  296.995    -37.4492  11.0563     0.0   14.8875
5389  5341.0  297.395    -37.4511  11.0544     0.0   14.8964
5399  5351.0  297.795    -37.4517  11.0537     0.0   14.8785
5409  5361.0  298.195    -37.4503  11.0552     0.0   14.8785
5419  5371.0  298.595    -37.4506  11.0549     0.0   14.8688
5429  5381.0  298.995    -37.4520  11.0534     0.0   14.8453
5439  5391.0  299.395    -37.4502  11.0553     0.0   14.8044
5449  5401.0  299.795    -37.4530  11.0525     0.0   14.7657
5459  5411.0  300.195    -37.4509  11.0546     0.0   14.7455
5469  5421.0  300.595    -37.4506  11.0549     0.0   14.7420
5479  5431.0  300.995    -37.4516  11.0539     0.0   14.6397
5489  5441.0  301.395    -37.4513  11.0542     0.0   14.6469
5499  5451.0  301.795    -37.4494  11.0561     0.0   14.6286
5509  5461.0  302.195    -37.4501  11.0554     0.0   14.5743
5519  5471.0  302.595    -37.4514  11.0541     0.0   14.5312
5529  5481.0  302.995    -37.4518  11.0537     0.0   14.5217
5539  5491.0  303.395    -37.4510  11.0545     0.0   14.5114
5549  5501.0  303.795    -37.4509  11.0546     0.0   14.5247
5559  5511.0  304.195    -37.4493  11.0561     0.0   14.5492
5569  5521.0  304.595    -37.4493  11.0562     0.0   14.5015
5579  5531.0  304.995    -37.4511  11.0544     0.0   14.4221
5589  5541.0  305.395    -37.4492  11.0563     0.0   14.4067
5599  5551.0  305.795    -37.4518  11.0537     0.0   14.3391
5609  5561.0  306.195    -37.4493  11.0562     0.0   14.2713
5619  5571.0  306.595    -37.4492  11.0563     0.0   14.3175
5629  5581.0  306.995    -37.4494  11.0561     0.0   14.2455
5639  5591.0  307.395    -37.4495  11.0560     0.0   14.2414
5649  5601.0  307.795    -37.4505  11.0550     0.0   14.2354
5659  5611.0  308.195    -37.4498  11.0557     0.0   14.2972
5669  5621.0  308.595    -37.4532  11.0522     0.0   14.2444
5679  5631.0  308.995    -37.4513  11.0542     0.0   14.2515
5689  5641.0  309.395    -37.4520  11.0535     0.0   14.1910
5699  5651.0  309.795    -37.4493  11.0562     0.0   14.2156
5709  5661.0  310.195    -37.4511  11.0544     0.0   14.2570
5719  5671.0  310.595    -37.4501  11.0554     0.0   14.2776
5729  5681.0  310.995    -37.4507  11.0548     0.0   14.2414
5739  5691.0  311.395    -37.4499  11.0556     0.0   14.2159
5749  5701.0  311.795    -37.4494  11.0561     0.0   14.1967
5759  5711.0  312.195    -37.4510  11.0545     0.0   14.1816
5769  5721.0  312.595    -37.4500  11.0555     0.0   14.1747
5779  5731.0  312.995    -37.4511  11.0544     0.0   14.1446
5789  5741.0  313.395    -37.4509  11.0546     0.0   14.1357
5799  5751.0  313.795    -37.4514  11.0541     0.0   14.1204
5809  5761.0  314.195    -37.4494  11.0561     0.0   14.1165
5819  5771.0  314.595    -37.4513  11.0542     0.0   14.0972
5829  5781.0  314.995    -37.4518  11.0537     0.0   14.0650
5839  5791.0  315.395    -37.4490  11.0565     0.0   14.0899
5849  5801.0  315.795    -37.4510  11.0545     0.0   14.0701
5859  5811.0  316.195    -37.4521  11.0534     0.0   14.1281
5869  5821.0  316.595    -37.4502  11.0553     0.0   14.0505
5879  5831.0  316.995    -37.4528  11.0527     0.0   14.0712
5889  5841.0  317.395    -37.4497  11.0558     0.0   14.1380
5899  5851.0  317.795    -37.4504  11.0551     0.0   14.1354
5909  5861.0  318.195    -37.4504  11.0551     0.0   14.0783
5919  5871.0  318.595    -37.4519  11.0536     0.0   14.0181
5929  5881.0  318.995    -37.4523  11.0532     0.0   14.0498
5939  5891.0  319.395    -37.4508  11.0547     0.0   14.0371
5949  5901.0  319.795    -37.4516  11.0539     0.0   14.0055
5959  5911.0  320.195    -37.4504  11.0551     0.0   14.0376
5969  5921.0  320.595    -37.4522  11.0533     0.0   14.0736
5979  5931.0  320.995    -37.4503  11.0552     0.0   14.0324
5989  5941.0  321.395    -37.4495  11.0560     0.0   14.0437
5999  5951.0  321.795    -37.4513  11.0542     0.0   14.0403
6009  5961.0  322.195    -37.4531  11.0524     0.0   13.9756
6019  5971.0  322.595    -37.4483  11.0572     0.0   13.9763
6029  5981.0  322.995    -37.4497  11.0558     0.0   13.9676
6039  5991.0  323.395    -37.4505  11.0550     0.0   13.9629
6049  6001.0  323.795    -37.4493  11.0562     0.0   13.9797
6059  6011.0  324.195    -37.4496  11.0559     0.0   13.9666
6069  6021.0  324.595    -37.4520  11.0535     0.0   13.8780
6079  6031.0  324.995    -37.4502  11.0553     0.0   13.9132
6089  6041.0  325.395    -37.4492  11.0563     0.0   13.9546
6099  6051.0  325.795    -37.4514  11.0541     0.0   13.9431
6109  6061.0  326.195    -37.4513  11.0542     0.0   13.9194
6119  6071.0  326.595    -37.4523  11.0532     0.0   13.9231
6129  6081.0  326.995    -37.4509  11.0546     0.0   13.8861
6139  6091.0  327.395    -37.4503  11.0552     0.0   13.9349
6149  6101.0  327.795    -37.4527  11.0528     0.0   13.9188
6159  6111.0  328.195    -37.4483  11.0572     0.0   13.8969
6169  6121.0  328.595    -37.4513  11.0542     0.0   13.9561
6179  6131.0  328.995    -37.4505  11.0550     0.0   13.9146
6189  6141.0  329.395    -37.4506  11.0549     0.0   13.8968
6199  6151.0  329.795    -37.4512  11.0543     0.0   13.9287
6209  6161.0  330.195    -37.4509  11.0546     0.0   13.9077
6219  6171.0  330.595    -37.4522  11.0533     0.0   13.8557
6229  6181.0  330.995    -37.4483  11.0572     0.0   14.0065
6239  6191.0  331.395    -37.4498  11.0557     0.0   13.9231
6249  6201.0  331.795    -37.4504  11.0551     0.0   13.8624
6259  6211.0  332.195    -37.4486  11.0568     0.0   13.9336
6269  6221.0  332.595    -37.4531  11.0524     0.0   13.8796
6279  6231.0  332.995    -37.4495  11.0560     0.0   13.9055
6289  6241.0  333.395    -37.4499  11.0556     0.0   13.8845
6299  6251.0  333.795    -37.4489  11.0566     0.0   13.8936
6309  6261.0  334.195    -37.4502  11.0553     0.0   13.8910
6319  6271.0  334.595    -37.4505  11.0550     0.0   13.9039
6329  6281.0  334.995    -37.4503  11.0552     0.0   13.8519
6339  6291.0  335.395    -37.4495  11.0560     0.0   13.8332
6349  6301.0  335.795    -37.4506  11.0549     0.0   13.8211
6359  6311.0  336.195    -37.4509  11.0546     0.0   13.7511
6369  6321.0  336.595    -37.4516  11.0539     0.0   13.7157
6379  6331.0  336.995    -37.4515  11.0540     0.0   13.6849
6389  6341.0  337.395    -37.4504  11.0551     0.0   13.7267
6399  6351.0  337.795    -37.4488  11.0567     0.0   13.7192
6409  6361.0  338.195    -37.4537  11.0518     0.0   13.7187
6419  6371.0  338.595    -37.4504  11.0551     0.0   13.7036
6429  6381.0  338.995    -37.4516  11.0539     0.0   13.7062
6439  6391.0  339.395    -37.4498  11.0557     0.0   13.7137
6449  6401.0  339.795    -37.4495  11.0560     0.0   13.6964
6459  6411.0  340.195    -37.4506  11.0549     0.0   13.6844
6469  6421.0  340.595    -37.4494  11.0561     0.0   13.6271
6479  6431.0  340.995    -37.4522  11.0533     0.0   13.6167
6489  6441.0  341.395    -37.4497  11.0558     0.0   13.7097
6499  6451.0  341.795    -37.4515  11.0540     0.0   13.7081
6509  6461.0  342.195    -37.4496  11.0559     0.0   13.7535
6519  6471.0  342.595    -37.4508  11.0547     0.0   13.7852
6529  6481.0  342.995    -37.4504  11.0551     0.0   13.7505
6539  6491.0  343.395    -37.4503  11.0552     0.0   13.7556
6549  6501.0  343.795    -37.4528  11.0527     0.0   13.7690
6559  6511.0  344.195    -37.4504  11.0551     0.0   13.7934
6569  6521.0  344.595    -37.4491  11.0564     0.0   13.8033
6579  6531.0  344.995    -37.4503  11.0552     0.0   13.7969
6589  6541.0  345.395    -37.4509  11.0546     0.0   13.7766
6599  6551.0  345.795    -37.4485  11.0570     0.0   13.7346
6609  6561.0  346.195    -37.4508  11.0547     0.0   13.6547
6619  6571.0  346.595    -37.4504  11.0551     0.0   13.6572
6629  6581.0  346.995    -37.4522  11.0533     0.0   13.6687
6639  6591.0  347.395    -37.4508  11.0547     0.0   13.6711
6649  6601.0  347.795    -37.4527  11.0528     0.0   13.6946
6659  6611.0  348.195    -37.4511  11.0544     0.0   13.6015
6669  6621.0  348.595    -37.4514  11.0541     0.0   13.6383
6679  6631.0  348.995    -37.4512  11.0543     0.0   13.6735
6689  6641.0  349.395    -37.4496  11.0559     0.0   13.6536
6699  6651.0  349.795    -37.4495  11.0560     0.0   13.6472
6715  6661.0  350.270    -37.4367  11.0688     0.0   13.9259
6725  6671.0  350.670    -37.4108  11.0947     0.0   14.3387
6735  6681.0  351.070    -37.3865  11.1190     0.0   14.7156
6745  6691.0  351.470    -37.3579  11.1476     0.0   15.0943
6755  6701.0  351.870    -37.3338  11.1717     0.0   15.4546
6765  6711.0  352.270    -37.3071  11.1984     0.0   15.8144
6775  6721.0  352.670    -37.2788  11.2267     0.0   16.1638
6785  6731.0  353.070    -37.2520  11.2535     0.0   16.4492
6795  6741.0  353.470    -37.2252  11.2803     0.0   16.6681
6805  6751.0  353.870    -37.1987  11.3068     0.0   16.9340
6815  6761.0  354.270    -37.1733  11.3322     0.0   17.2194
6825  6771.0  354.670    -37.1469  11.3586     0.0   17.4223
6835  6781.0  355.070    -37.1168  11.3887     0.0   17.6583
6845  6791.0  355.470    -37.0922  11.4133     0.0   17.9102
6855  6801.0  355.870    -37.0659  11.4395     0.0   18.1537
6865  6811.0  356.270    -37.0394  11.4661     0.0   18.3700
6875  6821.0  356.670    -37.0128  11.4927     0.0   18.5763
6885  6831.0  357.070    -36.9854  11.5201     0.0   18.7971
6895  6841.0  357.470    -36.9592  11.5463     0.0   18.9817
6905  6851.0  357.870    -36.9312  11.5743     0.0   19.1786
6915  6861.0  358.270    -36.9036  11.6019     0.0   19.4400
6925  6871.0  358.670    -36.8809  11.6246     0.0   19.5752
6935  6881.0  359.070    -36.8532  11.6523     0.0   19.7241
6945  6891.0  359.470    -36.8259  11.6796     0.0   19.9489
6955  6901.0  359.870    -36.7968  11.7087     0.0   20.1137
6965  6911.0  360.270    -36.7715  11.7340     0.0   20.3151
6975  6921.0  360.670    -36.7446  11.7609     0.0   20.4782
6985  6931.0  361.070    -36.7189  11.7866     0.0   20.6465
6995  6941.0  361.470    -36.6922  11.8133     0.0   20.8377
7005  6951.0  361.870    -36.6693  11.8362     0.0   21.0062
7015  6961.0  362.270    -36.6373  11.8682     0.0   21.1522
7025  6971.0  362.670    -36.6115  11.8940     0.0   21.3300
7035  6981.0  363.070    -36.5858  11.9197     0.0   21.4852
7045  6991.0  363.470    -36.5600  11.9455     0.0   21.6550
7055  7001.0  363.870    -36.5309  11.9746     0.0   21.8036
7065  7011.0  364.270    -36.5059  11.9996     0.0   22.0052
7075  7021.0  364.670    -36.4790  12.0265     0.0   22.1651
7085  7031.0  365.070    -36.4494  12.0560     0.0   22.3365
7095  7041.0  365.470    -36.4256  12.0799     0.0   22.4835
7105  7051.0  365.870    -36.3981  12.1073     0.0   22.6913
7115  7061.0  366.270    -36.3735  12.1319     0.0   22.8346
7125  7071.0  366.670    -36.3454  12.1601     0.0   23.0196
7135  7081.0  367.070    -36.3196  12.1859     0.0   23.1820
7145  7091.0  367.470    -36.2924  12.2131     0.0   23.3200
7155  7101.0  367.870    -36.2670  12.2385     0.0   23.4897
7165  7111.0  368.270    -36.2383  12.2672     0.0   23.6902
7175  7121.0  368.670    -36.2129  12.2926     0.0   23.8921
7185  7131.0  369.070    -36.1872  12.3183     0.0   24.0532
7195  7141.0  369.470    -36.1579  12.3476     0.0   24.2031
7205  7151.0  369.870    -36.1328  12.3727     0.0   24.3534
7215  7161.0  370.270    -36.1060  12.3995     0.0   24.5485
7225  7171.0  370.670    -36.0806  12.4249     0.0   24.6773
7235  7181.0  371.070    -36.0533  12.4522     0.0   24.8836
7245  7191.0  371.470    -36.0252  12.4803     0.0   25.0501
7255  7201.0  371.870    -35.9999  12.5056     0.0   25.2022
7265  7211.0  372.270    -35.9725  12.5330     0.0   25.3951
7275  7221.0  372.670    -35.9453  12.5602     0.0   25.5518
7285  7231.0  373.070    -35.9187  12.5868     0.0   25.7364
7295  7241.0  373.470    -35.8932  12.6123     0.0   25.8603
7305  7251.0  373.870    -35.8663  12.6392     0.0   26.0315
7315  7261.0  374.270    -35.8391  12.6664     0.0   26.2211
7325  7271.0  374.670    -35.8123  12.6932     0.0   26.4042
7335  7281.0  375.070    -35.7846  12.7209     0.0   26.5615
7345  7291.0  375.470    -35.7580  12.7475     0.0   26.7368
7355  7301.0  375.870    -35.7313  12.7742     0.0   26.8864
7365  7311.0  376.270    -35.7067  12.7988     0.0   27.0249
7375  7321.0  376.670    -35.6780  12.8275     0.0   27.1614
7385  7331.0  377.070    -35.6518  12.8537     0.0   27.3339
7395  7341.0  377.470    -35.6254  12.8801     0.0   27.5148
7405  7351.0  377.870    -35.5990  12.9065     0.0   27.7131
7415  7361.0  378.270    -35.5722  12.9333     0.0   27.8658
7425  7371.0  378.670    -35.5464  12.9591     0.0   28.0176
7435  7381.0  379.070    -35.5211  12.9844     0.0   28.1509
7445  7391.0  379.470    -35.4915  13.0140     0.0   28.2815
7455  7401.0  379.870    -35.4654  13.0401     0.0   28.4490
7465  7411.0  380.270    -35.4393  13.0661     0.0   28.5841
7475  7421.0  380.670    -35.4117  13.0938     0.0   28.7386
7485  7431.0  381.070    -35.3880  13.1175     0.0   28.8914
7495  7441.0  381.470    -35.3597  13.1457     0.0   29.0322
7505  7451.0  381.870    -35.3332  13.1723     0.0   29.1894
7515  7461.0  382.270    -35.3052  13.2002     0.0   29.3356
7525  7471.0  382.670    -35.2792  13.2263     0.0   29.4935
7535  7481.0  383.070    -35.2548  13.2507     0.0   29.6828
7545  7491.0  383.470    -35.2255  13.2800     0.0   29.8422
7555  7501.0  383.870    -35.1995  13.3059     0.0   29.9813
7565  7511.0  384.270    -35.1741  13.3314     0.0   30.0742
7575  7521.0  384.670    -35.1465  13.3590     0.0   30.2792
7585  7531.0  385.070    -35.1198  13.3857     0.0   30.4452
7595  7541.0  385.470    -35.0917  13.4138     0.0   30.5595
7605  7551.0  385.870    -35.0675  13.4380     0.0   30.7707
7615  7561.0  386.270    -35.0370  13.4685     0.0   30.9447
7625  7571.0  386.670    -35.0117  13.4938     0.0   31.0991
7635  7581.0  387.070    -34.9876  13.5179     0.0   31.1678
7645  7591.0  387.470    -34.9614  13.5441     0.0   31.3009
7655  7601.0  387.870    -34.9328  13.5727     0.0   31.3887
7665  7611.0  388.270    -34.9053  13.6002     0.0   31.5350
7675  7621.0  388.670    -34.8779  13.6276     0.0   31.6237
7685  7631.0  389.070    -34.8510  13.6545     0.0   31.7612
7695  7641.0  389.470    -34.8264  13.6791     0.0   31.9244
7705  7651.0  389.870    -34.8007  13.7048     0.0   32.0774
7715  7661.0  390.270    -34.7734  13.7321     0.0   32.2054
7725  7671.0  390.670    -34.7464  13.7591     0.0   32.3869
7735  7681.0  391.070    -34.7195  13.7860     0.0   32.5427
7745  7691.0  391.470    -34.6921  13.8134     0.0   32.6712
7755  7701.0  391.870    -34.6673  13.8382     0.0   32.8467
7765  7711.0  392.270    -34.6377  13.8678     0.0   33.0027
7775  7721.0  392.670    -34.6131  13.8924     0.0   33.1468
7785  7731.0  393.070    -34.5838  13.9217     0.0   33.2903
7795  7741.0  393.470    -34.5587  13.9468     0.0   33.4334
7805  7751.0  393.870    -34.5301  13.9754     0.0   33.5987
7815  7761.0  394.270    -34.5049  14.0006     0.0   33.7012
7825  7771.0  394.670    -34.4792  14.0263     0.0   33.8996
7835  7781.0  395.070    -34.4546  14.0508     0.0   33.9763
7845  7791.0  395.470    -34.4276  14.0779     0.0   34.1600
7855  7801.0  395.870    -34.3991  14.1063     0.0   34.3026
7865  7811.0  396.270    -34.3730  14.1325     0.0   34.4461
7875  7821.0  396.670    -34.3464  14.1591     0.0   34.5927
7885  7831.0  397.070    -34.3210  14.1845     0.0   34.7071
7895  7841.0  397.470    -34.2947  14.2108     0.0   34.8421
7905  7851.0  397.870    -34.2665  14.2390     0.0   34.9920
7915  7861.0  398.270    -34.2413  14.2642     0.0   35.1177
7925  7871.0  398.670    -34.2133  14.2922     0.0   35.2237
7935  7881.0  399.070    -34.1863  14.3192     0.0   35.4258
7945  7891.0  399.470    -34.1594  14.3461     0.0   35.5638
7955  7901.0  399.870    -34.1342  14.3713     0.0   35.6934
7965  7911.0  400.270    -34.1051  14.4004     0.0   35.8190
7975  7921.0  400.670    -34.0807  14.4248     0.0   35.9891
7985  7931.0  401.070    -34.0511  14.4544     0.0   36.1101
7995  7941.0  401.470    -34.0253  14.4802     0.0   36.2326
8005  7951.0  401.870    -34.0004  14.5051     0.0   36.3585
8015  7961.0  402.270    -33.9731  14.5324     0.0   36.5105
8025  7971.0  402.670    -33.9447  14.5608     0.0   36.7011
8035  7981.0  403.070    -33.9190  14.5865     0.0   36.8053
8045  7991.0  403.470    -33.8917  14.6138     0.0   36.9119
8055  8001.0  403.870    -33.8664  14.6391     0.0   37.0915
8065  8011.0  404.270    -33.8402  14.6653     0.0   37.2150
8075  8021.0  404.670    -33.8128  14.6927     0.0   37.3716