           Num  Time(s)  PosAbs(mm)  Pos(mm)  Pos(%)  Load(kN)
0          1.0    0.005    -16.1229  -0.0005     0.0    0.0779
10        11.0    2.005    -15.9898   0.1326     0.0    0.2251
20        21.0    4.005    -15.8567   0.2657     0.0    0.3416
30        31.0    6.005    -15.7228   0.3996     0.0    0.4730
40        41.0    8.005    -15.5898   0.5326     0.0    0.6115
50        51.0   10.005    -15.4560   0.6664     0.0    0.7644
60        61.0   12.005    -15.3231   0.7993     0.0    0.9157
70        71.0   14.005    -15.1893   0.9331     0.0    1.0756
80        81.0   16.005    -15.0564   1.0660     0.0    1.2282
90        91.0   18.005    -14.9226   1.1998     0.0    1.3864
100      101.0   20.005    -14.7890   1.3334     0.0    1.5565
110      111.0   22.005    -14.6560   1.4663     0.0    1.7100
120      121.0   24.005    -14.5230   1.5994     0.0    1.8731
130      131.0   26.005    -14.3899   1.7325     0.0    2.0236
140      141.0   28.005    -14.2569   1.8655     0.0    2.1860
150      151.0   30.005    -14.1229   1.9995     0.0    2.3416
160      161.0   32.005    -13.9898   2.1326     0.0    2.4706
170      171.0   34.005    -13.8563   2.2660     0.0    2.5420
180      181.0   36.005    -13.7240   2.3984     0.0    2.6673
190      191.0   38.005    -13.5899   2.5325     0.0    2.7077
200      201.0   40.005    -13.4564   2.6659     0.0    2.7500
210      211.0   42.005    -13.3234   2.7990     0.0    2.7757
220      221.0   44.005    -13.1898   2.9326     0.0    2.7959
230      231.0   46.005    -13.0566   3.0658     0.0    2.8289
240      241.0   48.005    -12.9234   3.1989     0.0    2.8739
250      251.0   50.005    -12.7896   3.3328     0.0    2.9660
260      261.0   52.005    -12.6566   3.4658     0.0    3.1349
270      271.0   54.005    -12.5234   3.5989     0.0    3.1518
280      281.0   56.005    -12.3897   3.7327     0.0    3.1696
290      291.0   58.005    -12.2567   3.8657     0.0    3.1939
300      301.0   60.005    -12.1229   3.9995     0.0    3.2095
310      311.0   62.005    -11.9901   4.1322     0.0    3.2132
320      321.0   64.005    -11.8574   4.2649     0.0    3.2263
330      331.0   66.005    -11.7227   4.3997     0.0    3.2341
340      341.0   68.005    -11.5900   4.5324     0.0    3.2514
350      351.0   70.005    -11.4565   4.6659     0.0    3.2794
360      361.0   72.005    -11.3232   4.7992     0.0    3.3005
370      371.0   74.005    -11.1898   4.9326     0.0    3.3161
380      381.0   76.005    -11.0565   5.0659     0.0    3.3349
390      391.0   78.005    -10.9229   5.1995     0.0    3.4283
400      401.0   80.005    -10.7898   5.3325     0.0    3.5801
410      411.0   82.005    -10.6565   5.4658     0.0    3.7372
420      421.0   84.005    -10.5236   5.5988     0.0    3.8737
430      431.0   86.005    -10.3893   5.7331     0.0    3.9939
446      441.0   86.535    -10.3931   5.7292     0.0    3.8864
456      451.0   86.935    -10.3929   5.7295     0.0    3.8544
466      461.0   87.335    -10.3925   5.7298     0.0    3.8269
476      471.0   87.735    -10.3926   5.7297     0.0    3.8032
486      481.0   88.135    -10.3926   5.7298     0.0    3.7815
496      491.0   88.535    -10.3929   5.7295     0.0    3.7610
506      501.0   88.935    -10.3930   5.7294     0.0    3.7474
516      511.0   89.335    -10.3928   5.7295     0.0    3.7351
526      521.0   89.735    -10.3924   5.7300     0.0    3.7180
536      531.0   90.135    -10.3926   5.7298     0.0    3.7081
546      541.0   90.535    -10.3927   5.7296     0.0    3.6940
556      551.0   90.935    -10.3921   5.7303     0.0    3.6853
566      561.0   91.335    -10.3927   5.7296     0.0    3.6712
576      571.0   91.735    -10.3926   5.7298     0.0    3.6629
587      581.0   92.135    -10.3930   5.7293     0.0    3.6522
597      591.0   92.535    -10.3923   5.7301     0.0    3.6451
607      601.0   92.935    -10.3929   5.7295     0.0    3.6343
617      611.0   93.335    -10.3927   5.7297     0.0    3.6229
627      621.0   93.735    -10.3927   5.7296     0.0    3.6165
637      631.0   94.135    -10.3925   5.7299     0.0    3.6041
647      641.0   94.535    -10.3923   5.7301     0.0    3.6018
657      651.0   94.935    -10.3920   5.7303     0.0    3.5955
667      661.0   95.335    -10.3927   5.7296     0.0    3.5913
677      671.0   95.735    -10.3928   5.7295     0.0    3.5896
687      681.0   96.135    -10.3928   5.7296     0.0    3.5860
697      691.0   96.535    -10.3924   5.7300     0.0    3.5771
707      701.0   96.935    -10.3927   5.7296     0.0    3.5684
717      711.0   97.335    -10.3926   5.7298     0.0    3.5594
727      721.0   97.735    -10.3923   5.7300     0.0    3.5556
737      731.0   98.135    -10.3930   5.7294     0.0    3.5593
747      741.0   98.535    -10.3925   5.7299     0.0    3.5552
757      751.0   98.935    -10.3927   5.7296     0.0    3.5471
767      761.0   99.335    -10.3923   5.7301     0.0    3.5390
777      771.0   99.735    -10.3924   5.7300     0.0    3.5328
787      781.0  100.135    -10.3926   5.7298     0.0    3.5305
797      791.0  100.535    -10.3922   5.7302     0.0    3.5245
807      801.0  100.935    -10.3922   5.7302     0.0    3.5272
817      811.0  101.335    -10.3922   5.7302     0.0    3.5205
827      821.0  101.735    -10.3921   5.7303     0.0    3.5074
837      831.0  102.135    -10.3928   5.7296     0.0    3.5013
847      841.0  102.535    -10.3929   5.7295     0.0    3.4931
857      851.0  102.935    -10.3922   5.7301     0.0    3.4897
867      861.0  103.335    -10.3925   5.7299     0.0    3.4943
877      871.0  103.735    -10.3928   5.7296     0.0    3.4826
887      881.0  104.135    -10.3928   5.7296     0.0    3.4872
897      891.0  104.535    -10.3926   5.7297     0.0    3.4811
907      901.0  104.935    -10.3926   5.7298     0.0    3.4759
917      911.0  105.335    -10.3921   5.7303     0.0    3.4747
927      921.0  105.735    -10.3924   5.7300     0.0    3.4813
937      931.0  106.135    -10.3926   5.7298     0.0    3.4319
947      941.0  106.535    -10.3924   5.7299     0.0    3.4214
957      951.0  106.935    -10.3927   5.7297     0.0    3.4182
967      961.0  107.335    -10.3922   5.7302     0.0    3.4045
977      971.0  107.735    -10.3927   5.7297     0.0    3.3711
987      981.0  108.135    -10.3927   5.7297     0.0    3.3883
997      991.0  108.535    -10.3927   5.7296     0.0    3.3948
1007    1001.0  108.935    -10.3919   5.7305     0.0    3.3791
1017    1011.0  109.335    -10.3922   5.7302     0.0    3.3481
1027    1021.0  109.735    -10.3930   5.7294     0.0    3.3471
1037    1031.0  110.135    -10.3925   5.7298     0.0    3.3785
1047    1041.0  110.535    -10.3929   5.7295     0.0    3.3562
1057    1051.0  110.935    -10.3924   5.7300     0.0    3.3466
1067    1061.0  111.335    -10.3928   5.7295     0.0    3.3558
1077    1071.0  111.735    -10.3929   5.7294     0.0    3.3641
1087    1081.0  112.135    -10.3924   5.7299     0.0    3.3201
1097    1091.0  112.535    -10.3925   5.7298     0.0    3.3173
1107    1101.0  112.935    -10.3927   5.7297     0.0    3.3357
1117    1111.0  113.335    -10.3927   5.7297     0.0    3.3175
1127    1121.0  113.735    -10.3927   5.7297     0.0    3.3007
1137    1131.0  114.135    -10.3928   5.7296     0.0    3.3090
1147    1141.0  114.535    -10.3928   5.7296     0.0    3.3019
1157    1151.0  114.935    -10.3928   5.7296     0.0    3.3160
1167    1161.0  115.335    -10.3929   5.7295     0.0    3.3046
1177    1171.0  115.735    -10.3922   5.7302     0.0    3.3260
1187    1181.0  116.135    -10.3925   5.7299     0.0    3.3419
1197    1191.0  116.535    -10.3930   5.7294     0.0    3.3327
1207    1201.0  116.935    -10.3924   5.7300     0.0    3.3273
1217    1211.0  117.335    -10.3923   5.7300     0.0    3.3227
1227    1221.0  117.735    -10.3927   5.7296     0.0    3.3328
1237    1231.0  118.135    -10.3930   5.7294     0.0    3.3268
1247    1241.0  118.535    -10.3925   5.7298     0.0    3.3394
1257    1251.0  118.935    -10.3929   5.7295     0.0    3.3130
1267    1261.0  119.335    -10.3922   5.7302     0.0    3.2822
1277    1271.0  119.735    -10.3922   5.7301     0.0    3.2951
1287    1281.0  120.135    -10.3928   5.7295     0.0    3.2954
1297    1291.0  120.535    -10.3932   5.7291     0.0    3.2862
1307    1301.0  120.935    -10.3929   5.7295     0.0    3.2872
1317    1311.0  121.335    -10.3927   5.7296     0.0    3.2754
1327    1321.0  121.735    -10.3929   5.7295     0.0    3.2757
1337    1331.0  122.135    -10.3926   5.7297     0.0    3.2813
1347    1341.0  122.535    -10.3922   5.7301     0.0    3.2847
1357    1351.0  122.935    -10.3927   5.7297     0.0    3.2792
1367    1361.0  123.335    -10.3930   5.7293     0.0    3.2682
1377    1371.0  123.735    -10.3924   5.7300     0.0    3.2805
1387    1381.0  124.135    -10.3920   5.7304     0.0    3.2746
1397    1391.0  124.535    -10.3928   5.7295     0.0    3.2759
1407    1401.0  124.935    -10.3922   5.7302     0.0    3.2712
1417    1411.0  125.335    -10.3925   5.7298     0.0    3.2657
1427    1421.0  125.735    -10.3926   5.7297     0.0    3.2698
1437    1431.0  126.135    -10.3930   5.7293     0.0    3.2631
1447    1441.0  126.535    -10.3925   5.7299     0.0    3.2595
1457    1451.0  126.935    -10.3924   5.7300     0.0    3.2661
1467    1461.0  127.335    -10.3926   5.7298     0.0    3.2644
1477    1471.0  127.735    -10.3927   5.7297     0.0    3.2594
1487    1481.0  128.135    -10.3923   5.7301     0.0    3.2625
1497    1491.0  128.535    -10.3926   5.7298     0.0    3.2607
1514    1501.0  129.000    -10.3851   5.7373     0.0    3.3031
1524    1511.0  129.400    -10.3580   5.7644     0.0    3.4587
1534    1521.0  129.800    -10.3324   5.7900     0.0    3.5936
1544    1531.0  130.200    -10.3050   5.8174     0.0    3.7132
1554    1541.0  130.600    -10.2783   5.8441     0.0    3.8253
1564    1551.0  131.000    -10.2523   5.8701     0.0    3.9103
1574    1561.0  131.400    -10.2254   5.8969     0.0    3.9943
1584    1571.0  131.800    -10.1987   5.9237     0.0    4.0684
1594    1581.0  132.200    -10.1724   5.9499     0.0    4.0989
1604    1591.0  132.600    -10.1463   5.9761     0.0    4.1031
1614    1601.0  133.000    -10.1186   6.0037     0.0    4.1339
1624    1611.0  133.400    -10.0914   6.0309     0.0    4.1819
1634    1621.0  133.800    -10.0655   6.0569     0.0    4.2225
1644    1631.0  134.200    -10.0390   6.0834     0.0    4.2799
1654    1641.0  134.600    -10.0125   6.1098     0.0    4.3377
1664    1651.0  135.000     -9.9853   6.1371     0.0    4.3995
1674    1661.0  135.400     -9.9590   6.1634     0.0    4.4570
1684    1671.0  135.800     -9.9317   6.1907     0.0    4.5124
1694    1681.0  136.200     -9.9055   6.2169     0.0    4.5650
1704    1691.0  136.600     -9.8792   6.2432     0.0    4.6160
1714    1701.0  137.000     -9.8521   6.2703     0.0    4.6584
1724    1711.0  137.400     -9.8257   6.2966     0.0    4.7014
1734    1721.0  137.800     -9.7987   6.3237     0.0    4.7500
1744    1731.0  138.200     -9.7721   6.3502     0.0    4.7873
1754    1741.0  138.600     -9.7448   6.3775     0.0    4.8300
1764    1751.0  139.000     -9.7186   6.4038     0.0    4.8691
1774    1761.0  139.400     -9.6919   6.4305     0.0    4.9106
1784    1771.0  139.800     -9.6657   6.4566     0.0    4.9489
1794    1781.0  140.200     -9.6387   6.4837     0.0    4.9850
1804    1791.0  140.600     -9.6121   6.5102     0.0    5.0227
1814    1801.0  141.000     -9.5859   6.5365     0.0    5.0514
1824    1811.0  141.400     -9.5589   6.5635     0.0    5.0872
1834    1821.0  141.800     -9.5326   6.5897     0.0    5.1236
1844    1831.0  142.200     -9.5055   6.6168     0.0    5.1636
1854    1841.0  142.600     -9.4788   6.6436     0.0    5.1980
1864    1851.0  143.000     -9.4523   6.6701     0.0    5.2325
1874    1861.0  143.400     -9.4250   6.6974     0.0    5.2687
1884    1871.0  143.800     -9.3989   6.7235     0.0    5.3033
1894    1881.0  144.200     -9.3722   6.7501     0.0    5.3439
1904    1891.0  144.600     -9.3457   6.7767     0.0    5.3809
1914    1901.0  145.000     -9.3196   6.8028     0.0    5.4209
1924    1911.0  145.400     -9.2923   6.8300     0.0    5.4588
1934    1921.0  145.800     -9.2660   6.8563     0.0    5.5014
1944    1931.0  146.200     -9.2389   6.8834     0.0    5.5384
1954    1941.0  146.600     -9.2126   6.9098     0.0    5.5711
1964    1951.0  147.000     -9.1857   6.9366     0.0    5.6081
1974    1961.0  147.400     -9.1591   6.9632     0.0    5.6422
1984    1971.0  147.800     -9.1325   6.9898     0.0    5.6760
1994    1981.0  148.200     -9.1057   7.0167     0.0    5.7065
2004    1991.0  148.600     -9.0794   7.0430     0.0    5.7473
2014    2001.0  149.000     -9.0526   7.0698     0.0    5.7846
2024    2011.0  149.400     -9.0261   7.0962     0.0    5.8158
2034    2021.0  149.800     -8.9990   7.1234     0.0    5.8496
2044    2031.0  150.200     -8.9723   7.1501     0.0    5.8915
2054    2041.0  150.600     -8.9460   7.1764     0.0    5.9246
2064    2051.0  151.000     -8.9183   7.2041     0.0    5.9698
2074    2061.0  151.400     -8.8926   7.2298     0.0    6.0080
2084    2071.0  151.800     -8.8658   7.2566     0.0    6.0515
2094    2081.0  152.200     -8.8393   7.2830     0.0    6.0929
2104    2091.0  152.600     -8.8126   7.3098     0.0    6.1311
2114    2101.0  153.000     -8.7860   7.3364     0.0    6.1703
2124    2111.0  153.400     -8.7591   7.3632     0.0    6.2124
2134    2121.0  153.800     -8.7326   7.3898     0.0    6.2487
2144    2131.0  154.200     -8.7056   7.4168     0.0    6.2855
2154    2141.0  154.600     -8.6789   7.4435     0.0    6.3211
2164    2151.0  155.000     -8.6526   7.4697     0.0    6.3427
2174    2161.0  155.400     -8.6255   7.4968     0.0    6.3884
2184    2171.0  155.800     -8.5992   7.5232     0.0    6.4264
2194    2181.0  156.200     -8.5724   7.5500     0.0    6.4586
2204    2191.0  156.600     -8.5457   7.5767     0.0    6.5041
2214    2201.0  157.000     -8.5191   7.6032     0.0    6.5452
2224    2211.0  157.400     -8.4926   7.6298     0.0    6.5817
2234    2221.0  157.800     -8.4655   7.6568     0.0    6.6259
2244    2231.0  158.200     -8.4391   7.6833     0.0    6.6639
2254    2241.0  158.600     -8.4123   7.7100     0.0    6.7127
2264    2251.0  159.000     -8.3855   7.7369     0.0    6.7504
2274    2261.0  159.400     -8.3591   7.7632     0.0    6.7869
2284    2271.0  159.800     -8.3326   7.7898     0.0    6.8396
2294    2281.0  160.200     -8.3053   7.8170     0.0    6.8865
2304    2291.0  160.600     -8.2794   7.8429     0.0    6.9361
2314    2301.0  161.000     -8.2521   7.8703     0.0    6.9946
2324    2311.0  161.400     -8.2255   7.8968     0.0    7.0356
2334    2321.0  161.800     -8.1992   7.9231     0.0    7.0866
2344    2331.0  162.200     -8.1727   7.9496     0.0    7.1359
2354    2341.0  162.600     -8.1459   7.9764     0.0    7.1862
2364    2351.0  163.000     -8.1192   8.0031     0.0    7.2356
2374    2361.0  163.400     -8.0929   8.0295     0.0    7.2807
2384    2371.0  163.800     -8.0653   8.0571     0.0    7.3380
2394    2381.0  164.200     -8.0389   8.0834     0.0    7.3895
2404    2391.0  164.600     -8.0125   8.1098     0.0    7.4377
2414    2401.0  165.000     -7.9859   8.1364     0.0    7.4828
2424    2411.0  165.400     -7.9591   8.1633     0.0    7.5478
2434    2421.0  165.800     -7.9326   8.1897     0.0    7.5827
2444    2431.0  166.200     -7.9063   8.2160     0.0    7.6311
2454    2441.0  166.600     -7.8793   8.2431     0.0    7.6886
2464    2451.0  167.000     -7.8524   8.2700     0.0    7.7368
2474    2461.0  167.400     -7.8256   8.2967     0.0    7.7930
2484    2471.0  167.800     -7.7997   8.3227     0.0    7.8531
2494    2481.0  168.200     -7.7724   8.3499     0.0    7.9102
2504    2491.0  168.600     -7.7463   8.3761     0.0    7.9817
2520    2501.0  169.000     -7.7491   8.3733     0.0    7.7771
2530    2511.0  169.400     -7.7494   8.3729     0.0    7.6762
2540    2521.0  169.800     -7.7495   8.3728     0.0    7.5941
2550    2531.0  170.200     -7.7497   8.3726     0.0    7.5373
2560    2541.0  170.600     -7.7490   8.3733     0.0    7.4793
2570    2551.0  171.000     -7.7495   8.3729     0.0    7.4294
2580    2561.0  171.400     -7.7488   8.3736     0.0    7.3861
2590    2571.0  171.800     -7.7494   8.3730     0.0    7.3512
2600    2581.0  172.200     -7.7489   8.3734     0.0    7.3118
2610    2591.0  172.600     -7.7496   8.3728     0.0    7.2828
2620    2601.0  173.000     -7.7487   8.3736     0.0    7.2591
2630    2611.0  173.400     -7.7496   8.3728     0.0    7.2230
2640    2621.0  173.800     -7.7495   8.3728     0.0    7.1959
2650    2631.0  174.200     -7.7494   8.3729     0.0    7.1684
2660    2641.0  174.600     -7.7496   8.3728     0.0    7.1458
2670    2651.0  175.000     -7.7493   8.3731     0.0    7.1281
2680    2661.0  175.400     -7.7489   8.3734     0.0    7.1079
2690    2671.0  175.800     -7.7491   8.3732     0.0    7.0799
2700    2681.0  176.200     -7.7493   8.3730     0.0    7.0668
2710    2691.0  176.600     -7.7493   8.3731     0.0    7.0465
2720    2701.0  177.000     -7.7493   8.3730     0.0    7.0295
2730    2711.0  177.400     -7.7490   8.3734     0.0    7.0168
2740    2721.0  177.800     -7.7491   8.3733     0.0    7.0022
2750    2731.0  178.200     -7.7494   8.3729     0.0    6.9833
2760    2741.0  178.600     -7.7494   8.3729     0.0    6.9755
2770    2751.0  179.000     -7.7490   8.3734     0.0    6.9630
2780    2761.0  179.400     -7.7492   8.3731     0.0    6.9498
2790    2771.0  179.800     -7.7492   8.3731     0.0    6.9291
2800    2781.0  180.200     -7.7491   8.3733     0.0    6.9197
2810    2791.0  180.600     -7.7490   8.3734     0.0    6.9028
2820    2801.0  181.000     -7.7493   8.3731     0.0    6.8971
2830    2811.0  181.400     -7.7491   8.3733     0.0    6.8876
2840    2821.0  181.800     -7.7491   8.3733     0.0    6.8725
2851    2831.0  182.200     -7.7494   8.3730     0.0    6.8639
2861    2841.0  182.600     -7.7490   8.3733     0.0    6.8596
2871    2851.0  183.000     -7.7495   8.3728     0.0    6.8524
2881    2861.0  183.400     -7.7492   8.3732     0.0    6.8489
2891    2871.0  183.800     -7.7493   8.3730     0.0    6.8315
2901    2881.0  184.200     -7.7492   8.3732     0.0    6.8255
2911    2891.0  184.600     -7.7494   8.3730     0.0    6.8195
2921    2901.0  185.000     -7.7491   8.3733     0.0    6.8091
2931    2911.0  185.400     -7.7497   8.3726     0.0    6.7976
2941    2921.0  185.800     -7.7488   8.3735     0.0    6.7983
2951    2931.0  186.200     -7.7492   8.3732     0.0    6.7839
2961    2941.0  186.600     -7.7489   8.3735     0.0    6.7743
2971    2951.0  187.000     -7.7494   8.3730     0.0    6.7628
2981    2961.0  187.400     -7.7493   8.3730     0.0    6.7579
2991    2971.0  187.800     -7.7490   8.3733     0.0    6.7507
3001    2981.0  188.200     -7.7492   8.3732     0.0    6.7444
3011    2991.0  188.600     -7.7492   8.3732     0.0    6.7347
3021    3001.0  189.000     -7.7497   8.3726     0.0    6.7342
3031    3011.0  189.400     -7.7491   8.3733     0.0    6.7233
3041    3021.0  189.800     -7.7495   8.3729     0.0    6.7046
3051    3031.0  190.200     -7.7490   8.3734     0.0    6.7007
3061    3041.0  190.600     -7.7493   8.3731     0.0    6.6962
3071    3051.0  191.000     -7.7493   8.3731     0.0    6.6863
3081    3061.0  191.400     -7.7492   8.3731     0.0    6.6847
3091    3071.0  191.800     -7.7491   8.3732     0.0    6.6806
3101    3081.0  192.200     -7.7492   8.3732     0.0    6.6735
3111    3091.0  192.600     -7.7492   8.3732     0.0    6.6735
3121    3101.0  193.000     -7.7493   8.3731     0.0    6.6730
3131    3111.0  193.400     -7.7493   8.3731     0.0    6.6658
3141    3121.0  193.800     -7.7492   8.3732     0.0    6.6551
3151    3131.0  194.200     -7.7490   8.3734     0.0    6.6473
3161    3141.0  194.600     -7.7495   8.3729     0.0    6.6509
3171    3151.0  195.000     -7.7494   8.3729     0.0    6.6287
3181    3161.0  195.400     -7.7492   8.3732     0.0    6.6363
3191    3171.0  195.800     -7.7492   8.3732     0.0    6.6397
3201    3181.0  196.200     -7.7491   8.3733     0.0    6.6420
3211    3191.0  196.600     -7.7492   8.3732     0.0    6.6407
3221    3201.0  197.000     -7.7494   8.3729     0.0    6.6421
3231    3211.0  197.400     -7.7489   8.3735     0.0    6.6418
3241    3221.0  197.800     -7.7491   8.3732     0.0    6.6142
3251    3231.0  198.200     -7.7497   8.3727     0.0    6.6072
3261    3241.0  198.600     -7.7493   8.3730     0.0    6.5969
3271    3251.0  199.000     -7.7491   8.3732     0.0    6.5818
3281    3261.0  199.400     -7.7495   8.3729     0.0    6.5853
3291    3271.0  199.800     -7.7493   8.3731     0.0    6.5722
3301    3281.0  200.200     -7.7492   8.3731     0.0    6.5731
3311    3291.0  200.600     -7.7494   8.3730     0.0    6.5731
3321    3301.0  201.000     -7.7491   8.3732     0.0    6.5568
3331    3311.0  201.400     -7.7490   8.3734     0.0    6.5701
3341    3321.0  201.800     -7.7490   8.3733     0.0    6.5587
3351    3331.0  202.200     -7.7492   8.3732     0.0    6.5515
3361    3341.0  202.600     -7.7491   8.3732     0.0    6.5508
3371    3351.0  203.000     -7.7494   8.3730     0.0    6.5235
3381    3361.0  203.400     -7.7492   8.3731     0.0    6.5257
3391    3371.0  203.800     -7.7496   8.3728     0.0    6.5352
3401    3381.0  204.200     -7.7491   8.3733     0.0    6.5280
3411    3391.0  204.600     -7.7497   8.3727     0.0    6.5389
3421    3401.0  205.000     -7.7493   8.3730     0.0    6.5336
3431    3411.0  205.400     -7.7495   8.3728     0.0    6.4961
3441    3421.0  205.800     -7.7494   8.3729     0.0    6.4789
3451    3431.0  206.200     -7.7496   8.3727     0.0    6.4912
3461    3441.0  206.600     -7.7497   8.3727     0.0    6.4999
3471    3451.0  207.000     -7.7495   8.3729     0.0    6.4881
3481    3461.0  207.400     -7.7494   8.3730     0.0    6.4755
3491    3471.0  207.800     -7.7497   8.3727     0.0    6.4766
3508    3481.0  208.245     -7.7482   8.3742     0.0    6.4817
3518    3491.0  208.645     -7.7205   8.4018     0.0    6.8219
3528    3501.0  209.045     -7.6941   8.4283     0.0    7.0765
3538    3511.0  209.445     -7.6679   8.4545     0.0    7.3131
3548    3521.0  209.845     -7.6409   8.4815     0.0    7.5342
3558    3531.0  210.245     -7.6141   8.5082     0.0    7.7358
3568    3541.0  210.645     -7.5872   8.5352     0.0    7.9174
3578    3551.0  211.045     -7.5609   8.5615     0.0    8.0811
3588    3561.0  211.445     -7.5342   8.5882     0.0    8.2322
3598    3571.0  211.845     -7.5071   8.6153     0.0    8.3631
3608    3581.0  212.245     -7.4809   8.6415     0.0    8.4874
3618    3591.0  212.645     -7.4543   8.6681     0.0    8.6038
3628    3601.0  213.045     -7.4275   8.6949     0.0    8.7141
3638    3611.0  213.445     -7.4007   8.7216     0.0    8.8211
3648    3621.0  213.845     -7.3744   8.7480     0.0    8.9188
3658    3631.0  214.245     -7.3474   8.7750     0.0    9.0190
3668    3641.0  214.645     -7.3211   8.8013     0.0    9.1026
3678    3651.0  215.045     -7.2941   8.8282     0.0    9.1979
3688    3661.0  215.445     -7.2678   8.8546     0.0    9.2710
3698    3671.0  215.845     -7.2408   8.8815     0.0    9.3609
3708    3681.0  216.245     -7.2141   8.9083     0.0    9.4422
3718    3691.0  216.645     -7.1878   8.9345     0.0    9.5153
3728    3701.0  217.045     -7.1608   8.9616     0.0    9.6011
3738    3711.0  217.445     -7.1341   8.9883     0.0    9.6778
3748    3721.0  217.845     -7.1076   9.0148     0.0    9.7557
3758    3731.0  218.245     -7.0810   9.0414     0.0    9.8306
3768    3741.0  218.645     -7.0540   9.0684     0.0    9.9138
3778    3751.0  219.045     -7.0275   9.0949     0.0    9.9852
3788    3761.0  219.445     -7.0008   9.1215     0.0   10.0633
3798    3771.0  219.845     -6.9744   9.1480     0.0   10.1425
3808    3781.0  220.245     -6.9476   9.1747     0.0   10.2190
3818    3791.0  220.645     -6.9208   9.2016     0.0   10.3005
3828    3801.0  221.045     -6.8942   9.2281     0.0   10.3749
3838    3811.0  221.445     -6.8676   9.2548     0.0   10.4585
3848    3821.0  221.845     -6.8409   9.2815     0.0   10.5411
3858    3831.0  222.245     -6.8145   9.3079     0.0   10.6224
3868    3841.0  222.645     -6.7877   9.3347     0.0   10.7025
3878    3851.0  223.045     -6.7608   9.3615     0.0   10.7922
3888    3861.0  223.445     -6.7346   9.3878     0.0   10.8683
3898    3871.0  223.845     -6.7076   9.4148     0.0   10.9596
3908    3881.0  224.245     -6.6807   9.4417     0.0   11.0419
3918    3891.0  224.645     -6.6543   9.4681     0.0   11.1408
3928    3901.0  225.045     -6.6279   9.4945     0.0   11.2310
3938    3911.0  225.445     -6.6009   9.5215     0.0   11.3191
3948    3921.0  225.845     -6.5742   9.5482     0.0   11.4132
3958    3931.0  226.245     -6.5477   9.5746     0.0   11.5021
3968    3941.0  226.645     -6.5204   9.6019     0.0   11.5943
3978    3951.0  227.045     -6.4941   9.6283     0.0   11.6877
3988    3961.0  227.445     -6.4676   9.6547     0.0   11.7891
3998    3971.0  227.845     -6.4409   9.6814     0.0   11.8852
4008    3981.0  228.245     -6.4144   9.7080     0.0   11.9863
4024    3991.0  228.645     -6.4219   9.7005     0.0   11.6355
4034    4001.0  229.045     -6.4222   9.7002     0.0   11.4911
4044    4011.0  229.445     -6.4222   9.7001     0.0   11.3690
4054    4021.0  229.845     -6.4220   9.7003     0.0   11.2734
4064    4031.0  230.245     -6.4224   9.7000     0.0   11.1880
4074    4041.0  230.645     -6.4224   9.7000     0.0   11.1209
4084    4051.0  231.045     -6.4222   9.7002     0.0   11.0511
4094    4061.0  231.445     -6.4222   9.7002     0.0   10.9945
4104    4071.0  231.845     -6.4223   9.7001     0.0   10.9387
4114    4081.0  232.245     -6.4227   9.6997     0.0   10.8850
4124    4091.0  232.645     -6.4220   9.7004     0.0   10.8421
4134    4101.0  233.045     -6.4221   9.7003     0.0   10.8061
4144    4111.0  233.445     -6.4222   9.7002     0.0   10.7589
4154    4121.0  233.845     -6.4220   9.7004     0.0   10.7224
4164    4131.0  234.245     -6.4217   9.7006     0.0   10.6915
4174    4141.0  234.645     -6.4220   9.7004     0.0   10.6805
4184    4151.0  235.045     -6.4220   9.7004     0.0   10.6293
4195    4161.0  235.445     -6.4220   9.7003     0.0   10.6044
4205    4171.0  235.845     -6.4219   9.7005     0.0   10.5878
4215    4181.0  236.245     -6.4220   9.7003     0.0   10.5364
4225    4191.0  236.645     -6.4220   9.7004     0.0   10.5350
4235    4201.0  237.045     -6.4219   9.7004     0.0   10.5005
4245    4211.0  237.445     -6.4220   9.7004     0.0   10.4703
4255    4221.0  237.845     -6.4218   9.7006     0.0   10.4666
4265    4231.0  238.245     -6.4216   9.7007     0.0   10.4410
4275    4241.0  238.645     -6.4218   9.7005     0.0   10.4194
4285    4251.0  239.045     -6.4222   9.7002     0.0   10.4073
4295    4261.0  239.445     -6.4219   9.7005     0.0   10.3742
4305    4271.0  239.845     -6.4222   9.7002     0.0   10.3550
4315    4281.0  240.245     -6.4220   9.7004     0.0   10.3443
4325    4291.0  240.645     -6.4219   9.7005     0.0   10.3127
4335    4301.0  241.045     -6.4221   9.7002     0.0   10.3010
4345    4311.0  241.445     -6.4223   9.7001     0.0   10.2957
4355    4321.0  241.845     -6.4224   9.7000     0.0   10.2710
4365    4331.0  242.245     -6.4221   9.7002     0.0   10.2569
4375    4341.0  242.645     -6.4219   9.7005     0.0   10.2504
4385    4351.0  243.045     -6.4220   9.7004     0.0   10.2254
4395    4361.0  243.445     -6.4221   9.7003     0.0   10.2145
4405    4371.0  243.845     -6.4217   9.7007     0.0   10.2022
4415    4381.0  244.245     -6.4218   9.7005     0.0   10.1810
4425    4391.0  244.645     -6.4219   9.7005     0.0   10.1694
4435    4401.0  245.045     -6.4219   9.7005     0.0   10.1609
4445    4411.0  245.445     -6.4214   9.7009     0.0   10.1432
4455    4421.0  245.845     -6.4217   9.7007     0.0   10.1311
4465    4431.0  246.245     -6.4219   9.7005     0.0   10.1141
4475    4441.0  246.645     -6.4218   9.7005     0.0   10.1051
4485    4451.0  247.045     -6.4219   9.7005     0.0   10.0963
4495    4461.0  247.445     -6.4222   9.7002     0.0   10.0792
4505    4471.0  247.845     -6.4221   9.7003     0.0   10.0651
4515    4481.0  248.245     -6.4218   9.7006     0.0   10.0628
4525    4491.0  248.645     -6.4220   9.7004     0.0   10.0530
4535    4501.0  249.045     -6.4222   9.7002     0.0   10.0588
4545    4511.0  249.445     -6.4218   9.7005     0.0   10.0332
4555    4521.0  249.845     -6.4220   9.7004     0.0   10.0114
4565    4531.0  250.245     -6.4219   9.7005     0.0   10.0023
4575    4541.0  250.645     -6.4220   9.7004     0.0    9.9942
4585    4551.0  251.045     -6.4216   9.7008     0.0    9.9850
4595    4561.0  251.445     -6.4217   9.7006     0.0    9.9741
4605    4571.0  251.845     -6.4222   9.7001     0.0    9.9665
4615    4581.0  252.245     -6.4219   9.7004     0.0    9.9540
4625    4591.0  252.645     -6.4219   9.7004     0.0    9.9448
4635    4601.0  253.045     -6.4222   9.7002     0.0    9.9371
4645    4611.0  253.445     -6.4220   9.7004     0.0    9.9179
4655    4621.0  253.845     -6.4219   9.7005     0.0    9.9007
4665    4631.0  254.245     -6.4221   9.7002     0.0    9.9102
4675    4641.0  254.645     -6.4221   9.7003     0.0    9.8837
4692    4651.0  255.115     -6.4221   9.7003     0.0    9.8950
4702    4661.0  255.515     -6.3955   9.7268     0.0   10.3129
4712    4671.0  255.915     -6.3685   9.7539     0.0   10.7040
4722    4681.0  256.315     -6.3420   9.7804     0.0   11.0581
4732    4691.0  256.715     -6.3158   9.8066     0.0   11.3664
4742    4701.0  257.115     -6.2890   9.8333     0.0   11.6685
4752    4711.0  257.515     -6.2626   9.8597     0.0   11.9311
4762    4721.0  257.915     -6.2359   9.8865     0.0   12.1775
4772    4731.0  258.315     -6.2089   9.9135     0.0   12.4061
4782    4741.0  258.715     -6.1828   9.9396     0.0   12.6085
4792    4751.0  259.115     -6.1559   9.9664     0.0   12.7917
4802    4761.0  259.515     -6.1295   9.9929     0.0   12.9737
4812    4771.0  259.915     -6.1026  10.0197     0.0   13.1447
4822    4781.0  260.315     -6.0762  10.0462     0.0   13.2995
4832    4791.0  260.715     -6.0492  10.0731     0.0   13.4540
4842    4801.0  261.115     -6.0227  10.0996     0.0   13.5976
4852    4811.0  261.515     -5.9961  10.1263     0.0   13.7458
4862    4821.0  261.915     -5.9694  10.1530     0.0   13.8782
4872    4831.0  262.315     -5.9428  10.1795     0.0   14.0034
4882    4841.0  262.715     -5.9162  10.2061     0.0   14.1304
4892    4851.0  263.115     -5.8895  10.2328     0.0   14.2652
4902    4861.0  263.515     -5.8625  10.2599     0.0   14.3865
4912    4871.0  263.915     -5.8364  10.2860     0.0   14.5148
4922    4881.0  264.315     -5.8094  10.3130     0.0   14.6397
4932    4891.0  264.715     -5.7826  10.3397     0.0   14.7667
4942    4901.0  265.115     -5.7563  10.3661     0.0   14.8793
4952    4911.0  265.515     -5.7297  10.3926     0.0   15.0035
4962    4921.0  265.915     -5.7028  10.4196     0.0   15.1380
4972    4931.0  266.315     -5.6762  10.4462     0.0   15.2675
4982    4941.0  266.715     -5.6495  10.4729     0.0   15.3881
4992    4951.0  267.115     -5.6228  10.4996     0.0   15.5092
5002    4961.0  267.515     -5.5960  10.5264     0.0   15.6470
5012    4971.0  267.915     -5.5696  10.5528     0.0   15.7782
5022    4981.0  268.315     -5.5429  10.5794     0.0   15.9127
5038    4991.0  268.725     -5.5355  10.5869     0.0   15.6828
5048    5001.0  269.125     -5.5355  10.5869     0.0   15.4820
5058    5011.0  269.525     -5.5353  10.5871     0.0   15.3164
5068    5021.0  269.925     -5.5352  10.5872     0.0   15.1803
5078    5031.0  270.325     -5.5355  10.5869     0.0   15.0613
5088    5041.0  270.725     -5.5354  10.5869     0.0   14.9544
5098    5051.0  271.125     -5.5357  10.5867     0.0   14.8733
5108    5061.0  271.525     -5.5354  10.5870     0.0   14.7942
5118    5071.0  271.925     -5.5352  10.5871     0.0   14.7312
5128    5081.0  272.325     -5.5356  10.5867     0.0   14.6452
5138    5091.0  272.725     -5.5355  10.5869     0.0   14.5915
5148    5101.0  273.125     -5.5354  10.5870     0.0   14.5452
5158    5111.0  273.525     -5.5355  10.5868     0.0   14.4793
5168    5121.0  273.925     -5.5358  10.5866     0.0   14.4437
5178    5131.0  274.325     -5.5353  10.5871     0.0   14.4068
5188    5141.0  274.725     -5.5357  10.5867     0.0   14.3464
5198    5151.0  275.125     -5.5357  10.5867     0.0   14.3295
5208    5161.0  275.525     -5.5357  10.5867     0.0   14.2825
5219    5171.0  275.925     -5.5351  10.5873     0.0   14.2359
5229    5181.0  276.325     -5.5352  10.5871     0.0   14.2055
5239    5191.0  276.725     -5.5353  10.5870     0.0   14.1686
5249    5201.0  277.125     -5.5353  10.5871     0.0   14.1296
5259    5211.0  277.525     -5.5354  10.5870     0.0   14.1106
5269    5221.0  277.925     -5.5351  10.5873     0.0   14.0729
5279    5231.0  278.325     -5.5352  10.5872     0.0   14.0411
5289    5241.0  278.725     -5.5352  10.5872     0.0   14.0226
5299    5251.0  279.125     -5.5352  10.5872     0.0   13.9826
5309    5261.0  279.525     -5.5352  10.5872     0.0   13.9595
5319    5271.0  279.925     -5.5352  10.5872     0.0   13.9411
5329    5281.0  280.325     -5.5354  10.5869     0.0   13.9026
5339    5291.0  280.725     -5.5353  10.5870     0.0   13.8838
5349    5301.0  281.125     -5.5354  10.5870     0.0   13.8663
5359    5311.0  281.525     -5.5350  10.5874     0.0   13.8388
5369    5321.0  281.925     -5.5351  10.5873     0.0   13.8227
5379    5331.0  282.325     -5.5357  10.5867     0.0   13.7977
5389    5341.0  282.725     -5.5353  10.5870     0.0   13.7783
5399    5351.0  283.125     -5.5354  10.5869     0.0   13.7674
5409    5361.0  283.525     -5.5353  10.5871     0.0   13.7468
5419    5371.0  283.925     -5.5353  10.5871     0.0   13.7202
5429    5381.0  284.325     -5.5355  10.5869     0.0   13.6953
5439    5391.0  284.725     -5.5353  10.5871     0.0   13.6829
5449    5401.0  285.125     -5.5354  10.5869     0.0   13.6626
5465    5411.0  285.595     -5.5142  10.6081     0.0   14.0657
5475    5421.0  285.995     -5.4879  10.6345     0.0   14.5253
5485    5431.0  286.395     -5.4613  10.6610     0.0   14.9506
5495    5441.0  286.795     -5.4346  10.6878     0.0   15.3505
5505    5451.0  287.195     -5.4082  10.7142     0.0   15.7084
5515    5461.0  287.595     -5.3813  10.7411     0.0   16.0408
5525    5471.0  287.995     -5.3548  10.7676     0.0   16.3407
5535    5481.0  288.395     -5.3283  10.7940     0.0   16.6160
5545    5491.0  288.795     -5.3014  10.8210     0.0   16.8704
5555    5501.0  289.195     -5.2745  10.8478     0.0   17.1038
5565    5511.0  289.595     -5.2483  10.8741     0.0   17.3280
5575    5521.0  289.995     -5.2216  10.9008     0.0   17.5328
5585    5531.0  290.395     -5.1950  10.9273     0.0   17.7291
5595    5541.0  290.795     -5.1682  10.9542     0.0   17.9177
5605    5551.0  291.195     -5.1419  10.9805     0.0   18.0964
5615    5561.0  291.595     -5.1150  11.0073     0.0   18.2619
5625    5571.0  291.995     -5.0882  11.0342     0.0   18.4377
5635    5581.0  292.395     -5.0615  11.0608     0.0   18.5967
5645    5591.0  292.795     -5.0350  11.0874     0.0   18.7579
5655    5601.0  293.195     -5.0084  11.1140     0.0   18.9167
5665    5611.0  293.595     -4.9817  11.1406     0.0   19.0703
5675    5621.0  293.995     -4.9550  11.1674     0.0   19.2301
5685    5631.0  294.395     -4.9285  11.1939     0.0   19.3794
5695    5641.0  294.795     -4.9019  11.2205     0.0   19.5406
5705    5651.0  295.195     -4.8751  11.2472     0.0   19.6889
5715    5661.0  295.595     -4.8483  11.2740     0.0   19.8608
5725    5671.0  295.995     -4.8218  11.3006     0.0   20.0112
5735    5681.0  296.395     -4.7952  11.3272     0.0   20.1590
5745    5691.0  296.795     -4.7683  11.3540     0.0   20.3252
5755    5701.0  297.195     -4.7420  11.3804     0.0   20.4793
5765    5711.0  297.595     -4.7151  11.4073     0.0   20.6444
5775    5721.0  297.995     -4.6883  11.4340     0.0   20.8105
5785    5731.0  298.395     -4.6617  11.4607     0.0   20.9766
5795    5741.0  298.795     -4.6352  11.4871     0.0   21.1482
5805    5751.0  299.195     -4.6084  11.5140     0.0   21.3200
5815    5761.0  299.595     -4.5818  11.5406     0.0   21.4918
5825    5771.0  299.995     -4.5552  11.5671     0.0   21.6709
5835    5781.0  300.395     -4.5285  11.5939     0.0   21.8442
5845    5791.0  300.795     -4.5017  11.6207     0.0   22.0160
5855    5801.0  301.195     -4.4752  11.6472     0.0   22.1894
5865    5811.0  301.595     -4.4485  11.6738     0.0   22.3660
5875    5821.0  301.995     -4.4219  11.7005     0.0   22.5480
5885    5831.0  302.395     -4.3949  11.7274     0.0   22.7281
5895    5841.0  302.795     -4.3683  11.7540     0.0   22.9013
5905    5851.0  303.195     -4.3419  11.7805     0.0   23.0862
5915    5861.0  303.595     -4.3153  11.8071     0.0   23.2616
5925    5871.0  303.995     -4.2884  11.8340     0.0   23.4480
5935    5881.0  304.395     -4.2617  11.8606     0.0   23.6298
5945    5891.0  304.795     -4.2349  11.8875     0.0   23.8135
5955    5901.0  305.195     -4.2087  11.9137     0.0   23.9904
5965    5911.0  305.595     -4.1818  11.9406     0.0   24.1798
5975    5921.0  305.995     -4.1552  11.9672     0.0   24.3213
5985    5931.0  306.395     -4.1286  11.9937     0.0   24.4758
5995    5941.0  306.795     -4.1019  12.0204     0.0   24.6594
6005    5951.0  307.195     -4.0753  12.0471     0.0   24.8412
6015    5961.0  307.595     -4.0485  12.0738     0.0   25.0388
6025    5971.0  307.995     -4.0218  12.1006     0.0   25.2253
6035    5981.0  308.395     -3.9950  12.1273     0.0   25.4112
6045    5991.0  308.795     -3.9686  12.1538     0.0   25.6125
6055    6001.0  309.195     -3.9421  12.1803     0.0   25.8429
6065    6011.0  309.595     -3.9150  12.2074     0.0   25.9884
6075    6021.0  309.995     -3.8885  12.2338     0.0   26.2039
6085    6031.0  310.395     -3.8622  12.2602     0.0   26.3952
6095    6041.0  310.795     -3.8349  12.2874     0.0   26.5950
6105    6051.0  311.195     -3.8085  12.3138     0.0   26.8129
6115    6061.0  311.595     -3.7819  12.3404     0.0   26.9931
6125    6071.0  311.995     -3.7551  12.3673     0.0   27.1963
6135    6081.0  312.395     -3.7287  12.3937     0.0   27.3851
6145    6091.0  312.795     -3.7018  12.4206     0.0   27.5433
6155    6101.0  313.195     -3.6752  12.4472     0.0   27.7349
6165    6111.0  313.595     -3.6487  12.4736     0.0   27.9304
6175    6121.0  313.995     -3.6220  12.5004     0.0   28.1251
6185    6131.0  314.395     -3.5953  12.5271     0.0   28.3323
6195    6141.0  314.795     -3.5687  12.5536     0.0   28.5216
6205    6151.0  315.195     -3.5420  12.5804     0.0   28.7403
6215    6161.0  315.595     -3.5153  12.6070     0.0   28.9491
6225    6171.0  315.995     -3.4889  12.6335     0.0   29.1556
6235    6181.0  316.395     -3.4620  12.6603     0.0   29.3574
6245    6191.0  316.795     -3.4356  12.6868     0.0   29.5646
6255    6201.0  317.195     -3.4089  12.7135     0.0   29.7519
6265    6211.0  317.595     -3.3820  12.7404     0.0   29.9596
6275    6221.0  317.995     -3.3555  12.7668     0.0   30.1514
6285    6231.0  318.395     -3.3288  12.7936     0.0   30.3577
6295    6241.0  318.795     -3.3022  12.8202     0.0   30.5610
6305    6251.0  319.195     -3.2756  12.8468     0.0   30.7509
6315    6261.0  319.595     -3.2488  12.8735     0.0   30.9527
6325    6271.0  319.995     -3.2224  12.9000     0.0   31.1683
6335    6281.0  320.395     -3.1954  12.9270     0.0   31.3729
6345    6291.0  320.795     -3.1686  12.9538     0.0   31.5891
6355    6301.0  321.195     -3.1423  12.9801     0.0   31.8045
6365    6311.0  321.595     -3.1155  13.0068     0.0   32.0226
6375    6321.0  321.995     -3.0887  13.0337     0.0   32.2469
6385    6331.0  322.395     -3.0620  13.0603     0.0   32.4369
6395    6341.0  322.795     -3.0354  13.0869     0.0   32.6583
6405    6351.0  323.195     -3.0087  13.1136     0.0   32.8901
6415    6361.0  323.595     -2.9823  13.1401     0.0   33.1201
6425    6371.0  323.995     -2.9555  13.1668     0.0   33.3545
6435    6381.0  324.395     -2.9289  13.1935     0.0   33.5754
6445    6391.0  324.795     -2.9024  13.2199     0.0   33.8066
6455    6401.0  325.195     -2.8755  13.2469     0.0   34.0502
6465    6411.0  325.595     -2.8489  13.2735     0.0   34.2511
6475    6421.0  325.995     -2.8224  13.3000     0.0   34.4947
6485    6431.0  326.395     -2.7956  13.3268     0.0   34.7207
6495    6441.0  326.795     -2.7690  13.3533     0.0   34.9517
6505    6451.0  327.195     -2.7421  13.3802     0.0   35.1855
6515    6461.0  327.595     -2.7154  13.4069     0.0   35.4171
6525    6471.0  327.995     -2.6890  13.4333     0.0   35.6436
6535    6481.0  328.395     -2.6621  13.4602     0.0   35.8717
6545    6491.0  328.795     -2.6358  13.4866     0.0   36.0983
6555    6501.0  329.195     -2.6088  13.5135     0.0   36.3447
6565    6511.0  329.595     -2.5822  13.5402     0.0   36.5755
6575    6521.0  329.995     -2.5558  13.5666     0.0   36.8332
6585    6531.0  330.395     -2.5292  13.5931     0.0   37.0535
6595    6541.0  330.795     -2.5022  13.6202     0.0   37.3010
6605    6551.0  331.195     -2.4756  13.6468     0.0   37.5372
6615    6561.0  331.595     -2.4491  13.6733     0.0   37.7795
6625    6571.0  331.995     -2.4223  13.7001     0.0   38.0402
6635    6581.0  332.395     -2.3955  13.7268     0.0   38.2824
6645    6591.0  332.795     -2.3691  13.7533     0.0   38.5382
6655    6601.0  333.195     -2.3424  13.7799     0.0   38.7900
6665    6611.0  333.595     -2.3156  13.8067     0.0   39.0283
6675    6621.0  333.995     -2.2890  13.8334     0.0   39.2862
6685    6631.0  334.395     -2.2624  13.8600     0.0   39.5386
6695    6641.0  334.795     -2.2360  13.8863     0.0   39.7922
6705    6651.0  335.195     -2.2091  13.9133     0.0   40.0548
6715    6661.0  335.595     -2.1824  13.9399     0.0   40.2950
6725    6671.0  335.995     -2.1557  13.9666     0.0   40.5581
6735    6681.0  336.395     -2.1291  13.9933     0.0   40.8055
6745    6691.0  336.795     -2.1024  14.0199     0.0   41.0588
6755    6701.0  337.195     -2.0758  14.0466     0.0   41.3188
6765    6711.0  337.595     -2.0492  14.0731     0.0   41.5661
6775    6721.0  337.995     -2.0226  14.0998     0.0   41.8267
6785    6731.0  338.395     -1.9958  14.1266     0.0   42.0801
6795    6741.0  338.795     -1.9691  14.1532     0.0   42.3365
6805    6751.0  339.195     -1.9425  14.1799     0.0   42.5917
6815    6761.0  339.595     -1.9159  14.2065     0.0   42.8386
6825    6771.0  339.995     -1.8892  14.2331     0.0   43.0954
6835    6781.0  340.395     -1.8626  14.2598     0.0   43.3659
6845    6791.0  340.795     -1.8358  14.2865     0.0   43.5907
6855    6801.0  341.195     -1.8091  14.3133     0.0   43.8540
6865    6811.0  341.595     -1.7826  14.3398     0.0   44.1168
6875    6821.0  341.995     -1.7558  14.3666     0.0   44.3784
6885    6831.0  342.395     -1.7293  14.3931     0.0   44.6341
6895    6841.0  342.795     -1.7027  14.4197     0.0   44.8980
6905    6851.0  343.195     -1.6760  14.4463     0.0   45.1761
6915    6861.0  343.595     -1.6493  14.4731     0.0   45.4364
6925    6871.0  343.995     -1.6227  14.4996     0.0   45.6997
6935    6881.0  344.395     -1.5961  14.5263     0.0   45.9721
6945    6891.0  344.795     -1.5693  14.5531     0.0   46.2349
6955    6901.0  345.195     -1.5426  14.5797     0.0   46.5122
6965    6911.0  345.595     -1.5160  14.6064     0.0   46.7816
6975    6921.0  345.995     -1.4893  14.6330     0.0   47.0412
6985    6931.0  346.395     -1.4625  14.6598     0.0   47.3192
6995    6941.0  346.795     -1.4360  14.6863     0.0   47.5816
7005    6951.0  347.195     -1.4094  14.7130     0.0   47.8473
7015    6961.0  347.595     -1.3826  14.7398     0.0   48.1233
7025    6971.0  347.995     -1.3561  14.7663     0.0   48.3872
7035    6981.0  348.395     -1.3293  14.7931     0.0   48.6625
7045    6991.0  348.795     -1.3027  14.8196     0.0   48.9269
7055    7001.0  349.195     -1.2762  14.8461     0.0   49.1914
7065    7011.0  349.595     -1.2495  14.8728     0.0   49.4609
7075    7021.0  349.995     -1.2228  14.8996     0.0   49.7248
7085    7031.0  350.395     -1.1961  14.9263     0.0   49.9877
7095    7041.0  350.795     -1.1694  14.9529     0.0   50.2485
7105    7051.0  351.195     -1.1428  14.9795     0.0   50.5069
7115    7061.0  351.595     -1.1162  15.0062     0.0   50.7634
7125    7071.0  351.995     -1.0893  15.0330     0.0   51.0232
7135    7081.0  352.395     -1.0630  15.0594     0.0   51.2823
7145    7091.0  352.795     -1.0361  15.0862     0.0   51.5384
7155    7101.0  353.195     -1.0095  15.1129     0.0   51.8038
7165    7111.0  353.595     -0.9830  15.1394     0.0   52.0601
7175    7121.0  353.995     -0.9561  15.1662     0.0   52.3254
7185    7131.0  354.395     -0.9297  15.1927     0.0   52.5811
7195    7141.0  354.795     -0.9028  15.2195     0.0   52.8388
7205    7151.0  355.195     -0.8762  15.2461     0.0   53.0907
7215    7161.0  355.595     -0.8496  15.2728     0.0   53.3471
7225    7171.0  355.995     -0.8227  15.2997     0.0   53.5980
7235    7181.0  356.395     -0.7961  15.3263     0.0   53.8466
7245    7191.0  356.795     -0.7696  15.3528     0.0   54.0965
7255    7201.0  357.195     -0.7428  15.3795     0.0   54.3428
7265    7211.0  357.595     -0.7163  15.4060     0.0   54.5831
7275    7221.0  357.995     -0.6894  15.4329     0.0   54.8262
7285    7231.0  358.395     -0.6630  15.4594     0.0   55.0585
7295    7241.0  358.795     -0.6364  15.4860     0.0   55.2940
7305    7251.0  359.195     -0.6096  15.5127     0.0   55.5234
7315    7261.0  359.595     -0.5830  15.5393     0.0   55.7565
7325    7271.0  359.995     -0.5563  15.5661     0.0   55.9877
7335    7281.0  360.395     -0.5296  15.5927     0.0   56.2168
7345    7291.0  360.795     -0.5030  15.6194     0.0   56.4469
7355    7301.0  361.195     -0.4764  15.6460     0.0   56.6683
7365    7311.0  361.595     -0.4496  15.6728     0.0   56.8865
7375    7321.0  361.995     -0.4232  15.6992     0.0   57.0964
7385    7331.0  362.395     -0.3963  15.7261     0.0   57.3162
7395    7341.0  362.795     -0.3698  15.7526     0.0   57.5328
7405    7351.0  363.195     -0.3430  15.7793     0.0   57.7483
7415    7361.0  363.595     -0.3165  15.8058     0.0   57.9643
7425    7371.0  363.995     -0.2898  15.8326     0.0   58.1780
7435    7381.0  364.395     -0.2632  15.8592     0.0   58.3838
7445    7391.0  364.795     -0.2364  15.8859     0.0   58.5897
7455    7401.0  365.195     -0.2099  15.9125     0.0   58.7779
7465    7411.0  365.595     -0.1832  15.9392     0.0   58.9708
7475    7421.0  365.995     -0.1565  15.9658     0.0   59.1797
7485    7431.0  366.395     -0.1300  15.9924     0.0   59.3650
7495    7441.0  366.795     -0.1032  16.0192     0.0   59.5582
7505    7451.0  367.195     -0.0764  16.0459     0.0   59.7271
7515    7461.0  367.595     -0.0499  16.0725     0.0   59.9204
7525    7471.0  367.995     -0.0233  16.0990     0.0   60.1103
7535    7481.0  368.395      0.0036  16.1259     0.0   60.2775
7545    7491.0  368.795      0.0300  16.1524     0.0   60.4551
7555    7501.0  369.195      0.0568  16.1791     0.0   60.6235
7565    7511.0  369.595      0.0834  16.2057     0.0   60.7913
7575    7521.0  369.995      0.1101  16.2324     0.0   60.9454
7585    7531.0  370.395      0.1367  16.2591     0.0   61.1016
7595    7541.0  370.795      0.1634  16.2858     0.0   61.2471
7605    7551.0  371.195      0.1902  16.3126     0.0   61.3892
7615    7561.0  371.595      0.2169  16.3393     0.0   61.5251
7625    7571.0  371.995      0.2435  16.3659     0.0   61.6514
7635    7581.0  372.395      0.2700  16.3924     0.0   61.7828
7645    7591.0  372.795      0.2968  16.4191     0.0   61.9057
7655    7601.0  373.195      0.3234  16.4457     0.0   62.0316
7665    7611.0  373.595      0.3500  16.4723     0.0   62.1573
7675    7621.0  373.995      0.3768  16.4991     0.0   62.2705
7685    7631.0  374.395      0.4034  16.5257     0.0   62.3930
7695    7641.0  374.795      0.4301  16.5525     0.0   62.5127
7705    7651.0  375.195      0.4569  16.5792     0.0   62.6301
7715    7661.0  375.595      0.4834  16.6058     0.0   62.7466
7725    7671.0  375.995      0.5102  16.6325     0.0   62.8553
7735    7681.0  376.395      0.5368  16.6592     0.0   62.9668
7745    7691.0  376.795      0.5634  16.6857     0.0   63.0721
7755    7701.0  377.195      0.5900  16.7123     0.0   63.1765
7765    7711.0  377.595      0.6167  16.7391     0.0   63.2820
7775    7721.0  377.995      0.6434  16.7658     0.0   63.3792
7785    7731.0  378.395      0.6700  16.7924     0.0   63.4781
7795    7741.0  378.795      0.6966  16.8190     0.0   63.5749
7805    7751.0  379.195      0.7233  16.8457     0.0   63.6677
7815    7761.0  379.595      0.7502  16.8726     0.0   63.7595
7825    7771.0  379.995      0.7767  16.8991     0.0   63.8487
7835    7781.0  380.395      0.8034  16.9258     0.0   63.9359
7845    7791.0  380.795      0.8301  16.9525     0.0   64.0206
7855    7801.0  381.195      0.8567  16.9791     0.0   64.0990
7865    7811.0  381.595      0.8833  17.0057     0.0   64.1782
7875    7821.0  381.995      0.9101  17.0325     0.0   64.2522
7885    7831.0  382.395      0.9366  17.0590     0.0   64.3306
7895    7841.0  382.795      0.9633  17.0857     0.0   64.4030
7905    7851.0  383.195      0.9901  17.1124     0.0   64.4755
7915    7861.0  383.595      1.0167  17.1390     0.0   64.5457
7925    7871.0  383.995      1.0433  17.1656     0.0   64.6153
7935    7881.0  384.395      1.0700  17.1923     0.0   64.6833
7945    7891.0  384.795      1.0966  17.2190     0.0   64.7506
7955    7901.0  385.195      1.1233  17.2456     0.0   64.8146
7965    7911.0  385.595      1.1499  17.2723     0.0   64.8809
7975    7921.0  385.995      1.1768  17.2992     0.0   64.9444
7985    7931.0  386.395      1.2033  17.3256     0.0   65.0037
7995    7941.0  386.795      1.2301  17.3524     0.0   65.0664
8005    7951.0  387.195      1.2566  17.3789     0.0   65.1276
8015    7961.0  387.595      1.2833  17.4057     0.0   65.1918
8025    7971.0  387.995      1.3099  17.4322     0.0   65.2465
8035    7981.0  388.395      1.3367  17.4591     0.0   65.3048
8045    7991.0  388.795      1.3631  17.4855     0.0   65.3620
8055    8001.0  389.195      1.3899  17.5122     0.0   65.4205
8065    8011.0  389.595      1.4166  17.5390     0.0   65.4741
8075    8021.0  389.995      1.4434  17.5657     0.0   65.5305
8085    8031.0  390.395      1.4700  17.5924     0.0   65.5822
8095    8041.0  390.795      1.4969  17.6192     0.0   65.6365
8105    8051.0  391.195      1.5232  17.6456     0.0   65.6880
8115    8061.0  391.595      1.5500  17.6724     0.0   65.7434
8125    8071.0  391.995      1.5765  17.6989     0.0   65.7907
8135    8081.0  392.395      1.6033  17.7257     0.0   65.8444
8145    8091.0  392.795      1.6301  17.7524     0.0   65.8959
8155    8101.0  393.195      1.6565  17.7789     0.0   65.9532
8165    8111.0  393.595      1.6834  17.8057     0.0   66.0031
8175    8121.0  393.995      1.7101  17.8324     0.0   66.0560
8185    8131.0  394.395      1.7365  17.8588     0.0   66.0994
8195    8141.0  394.795      1.7634  17.8857     0.0   66.1504
8205    8151.0  395.195      1.7900  17.9123     0.0   66.2003
8215    8161.0  395.595      1.8166  17.9390     0.0   66.2450
8225    8171.0  395.995      1.8433  17.9656     0.0   66.2923
8235    8181.0  396.395      1.8699  17.9922     0.0   66.3391
8245    8191.0  396.795      1.8966  18.0190     0.0   66.3890
8255    8201.0  397.195      1.9233  18.0457     0.0   66.4382
8265    8211.0  397.595      1.9499  18.0722     0.0   66.4837
8275    8221.0  397.995      1.9767  18.0990     0.0   66.5259
8285    8231.0  398.395      2.0032  18.1256     0.0   66.5779
8295    8241.0  398.795      2.0299  18.1523     0.0   66.6166
8305    8251.0  399.195      2.0565  18.1789     0.0   66.6669
8315    8261.0  399.595      2.0831  18.2054     0.0   66.7092
8325    8271.0  399.995      2.1098  18.2321     0.0   66.7525
8335    8281.0  400.395      2.1366  18.2590     0.0   66.8014
8345    8291.0  400.795      2.1630  18.2854     0.0   66.8351
8355    8301.0  401.195      2.1900  18.3123     0.0   66.8654
8365    8311.0  401.595      2.2165  18.3388     0.0   66.8995
8375    8321.0  401.995      2.2434  18.3657     0.0   66.9334
8385    8331.0  402.395      2.2699  18.3923     0.0   66.9704
8395    8341.0  402.795      2.2966  18.4190     0.0   67.0100
8405    8351.0  403.195      2.3234  18.4457     0.0   67.0437
8415    8361.0  403.595      2.3500  18.4724     0.0   67.0838
8425    8371.0  403.995      2.3765  18.4989     0.0   67.1119
8435    8381.0  404.395      2.4032  18.5256     0.0   67.1624
8445    8391.0  404.795      2.4298  18.5522     0.0   67.1996
8455    8401.0  405.195      2.4564  18.5788     0.0   67.2418
8465    8411.0  405.595      2.4832  18.6055     0.0   67.2896
8475    8421.0  405.995      2.5100  18.6323     0.0   67.3235
8485    8431.0  406.395      2.5365  18.6589     0.0   67.3659
8495    8441.0  406.795      2.5631  18.6855     0.0   67.3924
8505    8451.0  407.195      2.5899  18.7122     0.0   67.4341
8515    8461.0  407.595      2.6164  18.7388     0.0   67.4813
8525    8471.0  407.995      2.6432  18.7655     0.0   67.5268
8535    8481.0  408.395      2.6700  18.7923     0.0   67.5541
8545    8491.0  408.795      2.6966  18.8190     0.0   67.6097
8555    8501.0  409.195      2.7232  18.8455     0.0   67.6274
8565    8511.0  409.595      2.7499  18.8722     0.0   67.6792
8575    8521.0  409.995      2.7764  18.8988     0.0   67.7228
8585    8531.0  410.395      2.8032  18.9256     0.0   67.7518
8595    8541.0  410.795      2.8297  18.9521     0.0   67.8067
8605    8551.0  411.195      2.8567  18.9791     0.0   67.8335
8615    8561.0  411.595      2.8832  19.0055     0.0   67.8836
8625    8571.0  411.995      2.9101  19.0324     0.0   67.9283
8635    8581.0  412.395      2.9366  19.0589     0.0   67.9592
8645    8591.0  412.795      2.9631  19.0855     0.0   68.0146
8655    8601.0  413.195      2.9898  19.1121     0.0   68.0478
8665    8611.0  413.595      3.0165  19.1389     0.0   68.0907
8675    8621.0  413.995      3.0432  19.1655     0.0   68.1206
8685    8631.0  414.395      3.0697  19.1921     0.0   68.1660
8695    8641.0  414.795      3.0964  19.2188     0.0   68.2050
8705    8651.0  415.195      3.1232  19.2456     0.0   68.2483
8715    8661.0  415.595      3.1498  19.2722     0.0   68.2882
8725    8671.0  415.995      3.1765  19.2988     0.0   68.3312
8735    8681.0  416.395      3.2030  19.3254     0.0   68.3658
8745    8691.0  416.795      3.2297  19.3521     0.0   68.4087
8755    8701.0  417.195      3.2566  19.3789     0.0   68.4466
8765    8711.0  417.595      3.2831  19.4055     0.0   68.4851
8775    8721.0  417.995      3.3098  19.4321     0.0   68.5247
8785    8731.0  418.395      3.3366  19.4590     0.0   68.5614
8795    8741.0  418.795      3.3633  19.4857     0.0   68.6039
8805    8751.0  419.195      3.3899  19.5122     0.0   68.6375
8815    8761.0  419.595      3.4166  19.5389     0.0   68.6769
8825    8771.0  419.995      3.4433  19.5657     0.0   68.7134
8835    8781.0  420.395      3.4698  19.5922     0.0   68.7533
8845    8791.0  420.795      3.4965  19.6189     0.0   68.7916
8855    8801.0  421.195      3.5231  19.6454     0.0   68.8249
8865    8811.0  421.595      3.5499  19.6723     0.0   68.8610
8875    8821.0  421.995      3.5765  19.6989     0.0   68.9061
8885    8831.0  422.395      3.6033  19.7257     0.0   68.9311
8895    8841.0  422.795      3.6297  19.7521     0.0   68.9675
8905    8851.0  423.195      3.6565  19.7789     0.0   69.0033
8915    8861.0  423.595      3.6830  19.8053     0.0   69.0313
8925    8871.0  423.995      3.7100  19.8323     0.0   69.0722
8935    8881.0  424.395      3.7366  19.8590     0.0   69.1088
8945    8891.0  424.795      3.7632  19.8855     0.0   69.1419
8955    8901.0  425.195      3.7899  19.9123     0.0   69.1827
8965    8911.0  425.595      3.8164  19.9388     0.0   69.2105
8975    8921.0  425.995      3.8433  19.9657     0.0   69.2471
8985    8931.0  426.395      3.8698  19.9921     0.0   69.2822
8995    8941.0  426.795      3.8966  20.0189     0.0   69.2996
9005    8951.0  427.195      3.9231  20.0455     0.0   69.3499
9015    8961.0  427.595      3.9497  20.0721     0.0   69.3644
9025    8971.0  427.995      3.9765  20.0989     0.0   69.4052
9035    8981.0  428.395      4.0031  20.1254     0.0   69.4723
9045    8991.0  428.795      4.0299  20.1523     0.0   69.4574
9055    9001.0  429.195      4.0564  20.1788     0.0   69.5370
9065    9011.0  429.595      4.0832  20.2055     0.0   69.5190
9075    9021.0  429.995      4.1098  20.2322     0.0   69.5456
9085    9031.0  430.395      4.1364  20.2588     0.0   69.6228
9095    9041.0  430.795      4.1628  20.2852     0.0   69.6262
9105    9051.0  431.195      4.1898  20.3121     0.0   69.6724
9115    9061.0  431.595      4.2166  20.3389     0.0   69.7025
9125    9071.0  431.995      4.2431  20.3654     0.0   69.7255
9135    9081.0  432.395      4.2697  20.3921     0.0   69.7733
9145    9091.0  432.795      4.2965  20.4189     0.0   69.7857
9155    9101.0  433.195      4.3233  20.4457     0.0   69.8316
9165    9111.0  433.595      4.3495  20.4719     0.0   69.8571
9175    9121.0  433.995      4.3762  20.4986     0.0   69.8641
9185    9131.0  434.395      4.4032  20.5256     0.0   69.9151
9195    9141.0  434.795      4.4296  20.5520     0.0   69.9380
9205    9151.0  435.195      4.4565  20.5788     0.0   69.9832
9215    9161.0  435.595      4.4832  20.6056     0.0   70.0169
9225    9171.0  435.995      4.5099  20.6323     0.0   70.0476
9235    9181.0  436.395      4.5366  20.6589     0.0   70.0939
9245    9191.0  436.795      4.5632  20.6855     0.0   70.0923
9255    9201.0  437.195      4.5897  20.7120     0.0   70.1557
9265    9211.0  437.595      4.6167  20.7391     0.0   70.1848
9275    9221.0  437.995      4.6433  20.7657     0.0   70.1770
9285    9231.0  438.395      4.6699  20.7922     0.0   70.2090
9295    9241.0  438.795      4.6967  20.8190     0.0   70.2429
9305    9251.0  439.195      4.7232  20.8456     0.0   70.2687
9315    9261.0  439.595      4.7497  20.8721     0.0   70.2762
9325    9271.0  439.995      4.7766  20.8989     0.0   70.2995
9335    9281.0  440.395      4.8035  20.9259     0.0   70.3523
9345    9291.0  440.795      4.8299  20.9523     0.0   70.3726
9355    9301.0  441.195      4.8564  20.9788     0.0   70.4159
9365    9311.0  441.595      4.8833  21.0056     0.0   70.4447
9375    9321.0  441.995      4.9099  21.0323     0.0   70.4609
9385    9331.0  442.395      4.9366  21.0590     0.0   70.5095
9395    9341.0  442.795      4.9630  21.0854     0.0   70.5119
9405    9351.0  443.195      4.9898  21.1121     0.0   70.5349
9415    9361.0  443.595      5.0166  21.1389     0.0   70.5804
9425    9371.0  443.995      5.0432  21.1656     0.0   70.5882
9435    9381.0  444.395      5.0698  21.1922     0.0   70.6386
9445    9391.0  444.795      5.0967  21.2191     0.0   70.6491
9455    9401.0  445.195      5.1229  21.2453     0.0   70.6569
9465    9411.0  445.595      5.1497  21.2721     0.0   70.6685
9475    9421.0  445.995      5.1764  21.2987     0.0   70.6942
9485    9431.0  446.395      5.2033  21.3257     0.0   70.7305
9495    9441.0  446.795      5.2299  21.3523     0.0   70.7370
9505    9451.0  447.195      5.2562  21.3785     0.0   70.7732
9515    9461.0  447.595      5.2834  21.4057     0.0   70.7928
9525    9471.0  447.995      5.3099  21.4323     0.0   70.8194
9535    9481.0  448.395      5.3367  21.4591     0.0   70.8460
9545    9491.0  448.795      5.3630  21.4853     0.0   70.8551
9555    9501.0  449.195      5.3900  21.5123     0.0   70.8942
9565    9511.0  449.595      5.4165  21.5388     0.0   70.8994
9575    9521.0  449.995      5.4431  21.5655     0.0   70.9299
9585    9531.0  450.395      5.4698  21.5921     0.0   70.9488
9595    9541.0  450.795      5.4967  21.6191     0.0   70.9654
9605    9551.0  451.195      5.5231  21.6454     0.0   70.9972
9615    9561.0  451.595      5.5497  21.6721     0.0   71.0129
9625    9571.0  451.995      5.5762  21.6985     0.0   71.0341
9635    9581.0  452.395      5.6032  21.7255     0.0   71.0567
9645    9591.0  452.795      5.6298  21.7522     0.0   71.0881
9655    9601.0  453.195      5.6568  21.7791     0.0   71.1030
9665    9611.0  453.595      5.6833  21.8057     0.0   71.1137
9675    9621.0  453.995      5.7097  21.8320     0.0   71.1317
9685    9631.0  454.395      5.7362  21.8586     0.0   71.1466
9695    9641.0  454.795      5.7631  21.8855     0.0   71.1760
9705    9651.0  455.195      5.7897  21.9120     0.0   71.1983
9715    9661.0  455.595      5.8165  21.9388     0.0   71.2068
9725    9671.0  455.995      5.8432  21.9656     0.0   71.2277
9735    9681.0  456.395      5.8696  21.9919     0.0   71.2508
9745    9691.0  456.795      5.8968  22.0192     0.0   71.2519
9755    9701.0  457.195      5.9235  22.0459     0.0   71.2858
9765    9711.0  457.595      5.9498  22.0722     0.0   71.2982
9775    9721.0  457.995      5.9764  22.0988     0.0   71.3213
9785    9731.0  458.395      6.0028  22.1252     0.0   71.3360
9795    9741.0  458.795      6.0298  22.1522     0.0   71.3562
9805    9751.0  459.195      6.0560  22.1783     0.0   71.3825
9815    9761.0  459.595      6.0834  22.2058     0.0   71.4133
9825    9771.0  459.995      6.1097  22.2321     0.0   71.4178
9835    9781.0  460.395      6.1367  22.2591     0.0   71.4640
9845    9791.0  460.795      6.1630  22.2854     0.0   71.4524
9855    9801.0  461.195      6.1898  22.3122     0.0   71.4858
9865    9811.0  461.595      6.2164  22.3387     0.0   71.5025
9875    9821.0  461.995      6.2432  22.3655     0.0   71.5119
9885    9831.0  462.395      6.2702  22.3926     0.0   71.5514
9895    9841.0  462.795      6.2966  22.4189     0.0   71.5504
9905    9851.0  463.195      6.3232  22.4455     0.0   71.5834
9915    9861.0  463.595      6.3498  22.4721     0.0   71.6034
9925    9871.0  463.995      6.3764  22.4988     0.0   71.6119
9935    9881.0  464.395      6.4032  22.5256     0.0   71.6442
9945    9891.0  464.795      6.4301  22.5525     0.0   71.6647
9955    9901.0  465.195      6.4565  22.5789     0.0   71.6912
9965    9911.0  465.595      6.4832  22.6056     0.0   71.6994
9975    9921.0  465.995      6.5100  22.6324     0.0   71.7205
9985    9931.0  466.395      6.5365  22.6589     0.0   71.7442
9995    9941.0  466.795      6.5631  22.6855     0.0   71.7446
10005   9951.0  467.195      6.5900  22.7124     0.0   71.7743
10015   9961.0  467.595      6.6164  22.7388     0.0   71.7878
10025   9971.0  467.995      6.6431  22.7655     0.0   71.8049
10035   9981.0  468.395      6.6699  22.7922     0.0   71.8224
10045   9991.0  468.795      6.6963  22.8187     0.0   71.8373
10055  10001.0  469.195      6.7232  22.8456     0.0   71.8709
10065  10011.0  469.595      6.7497  22.8721     0.0   71.8832
10075  10021.0  469.995      6.7766  22.8990     0.0   71.8809
10085  10031.0  470.395      6.8032  22.9256     0.0   71.9112
10095  10041.0  470.795      6.8299  22.9522     0.0   71.9163
10105  10051.0  471.195      6.8566  22.9789     0.0   71.9489
10115  10061.0  471.595      6.8830  23.0054     0.0   71.9477
10125  10071.0  471.995      6.9100  23.0324     0.0   71.9714
10135  10081.0  472.395      6.9366  23.0590     0.0   71.9831
10145  10091.0  472.795      6.9630  23.0854     0.0   71.9928
10155  10101.0  473.195      6.9901  23.1125     0.0   72.0069
10165  10111.0  473.595      7.0166  23.1389     0.0   72.0280
10175  10121.0  473.995      7.0430  23.1654     0.0   72.0310
10185  10131.0  474.395      7.0695  23.1919     0.0   72.0357
10195  10141.0  474.795      7.0967  23.2191     0.0   72.0484
10205  10151.0  475.195      7.1228  23.2452     0.0   72.0672
10215  10161.0  475.595      7.1500  23.2724     0.0   72.1012
10225  10171.0  475.995      7.1764  23.2988     0.0   72.1077
10235  10181.0  476.395      7.2033  23.3257     0.0   72.1395
10245  10191.0  476.795      7.2300  23.3523     0.0   72.1482
10255  10201.0  477.195      7.2565  23.3788     0.0   72.1685
10265  10211.0  477.595      7.2831  23.4054     0.0   72.1757
10275  10221.0  477.995      7.3097  23.4321     0.0   72.1926
10285  10231.0  478.395      7.3366  23.4589     0.0   72.2124